"X","participant_id","exp_trial_type","block_n","trial_n","trial_index","time_elapsed","partner_id","object","label","object_choices","object_selected","score","rt","condition","pair_id","key_feature","predicted"
9,"p001","director",1,9,68,1137829,"p093","cross_grey","cross","","",NA,2341.09999999963,"fixed_associations","p001-p093","grey",NA
11,"p001","director",1,11,75,1155881,"p093","circle_red","cross","","",NA,1376.70000000112,"fixed_associations","p001-p093","red",NA
13,"p001","director",1,13,82,1174115,"p093","hexagon_yellow","hexagon","","",NA,1674,"fixed_associations","p001-p093","yellow",NA
15,"p001","director",1,15,89,1190570,"p093","star_pink","star","","",NA,3896.90000000037,"fixed_associations","p001-p093","pink",NA
17,"p001","director",1,17,96,1205520,"p093","star_pink","star","","",NA,1139.80000000075,"fixed_associations","p001-p093","pink",NA
19,"p001","director",1,19,103,1219074,"p093","cross_grey","cross","","",NA,1445.5,"fixed_associations","p001-p093","grey",NA
21,"p001","director",1,21,110,1234430,"p093","hexagon_yellow","hexagon","","",NA,1533,"fixed_associations","p001-p093","yellow",NA
23,"p001","director",1,23,117,1261798,"p093","circle_red","circle","","",NA,1132.69999999925,"fixed_associations","p001-p093","red",NA
25,"p001","director",1,25,124,1276110,"p093","circle_red","circle","","",NA,1610.80000000075,"fixed_associations","p001-p093","red",NA
27,"p001","director",1,27,131,1292886,"p093","hexagon_yellow","hexagon","","",NA,971.700000001118,"fixed_associations","p001-p093","yellow",NA
29,"p001","director",1,29,138,1307056,"p093","star_pink","star","","",NA,1036.30000000075,"fixed_associations","p001-p093","pink",NA
31,"p001","director",1,31,145,1322392,"p093","cross_grey","star","","",NA,3452.70000000112,"fixed_associations","p001-p093","grey",NA
33,"p001","director",1,33,152,1336438,"p093","cross_grey","star","","",NA,1831.30000000075,"fixed_associations","p001-p093","grey",NA
35,"p001","director",1,35,159,1349992,"p093","circle_red","circle","","",NA,1482.09999999963,"fixed_associations","p001-p093","red",NA
37,"p001","director",1,37,166,1365648,"p093","hexagon_yellow","hexagon","","",NA,2712.90000000037,"fixed_associations","p001-p093","yellow",NA
39,"p001","director",1,39,173,1379062,"p093","star_pink","star","","",NA,1015.40000000037,"fixed_associations","p001-p093","pink",NA
41,"p001","director",1,41,180,1391758,"p093","hexagon_yellow","hexagon","","",NA,1177.29999999888,"fixed_associations","p001-p093","yellow",NA
43,"p001","director",1,43,187,1406434,"p093","circle_red","circle","","",NA,1322.20000000112,"fixed_associations","p001-p093","red",NA
45,"p001","director",1,45,194,1422189,"p093","star_pink","star","","",NA,3334.40000000037,"fixed_associations","p001-p093","pink",NA
47,"p001","director",1,47,201,1436648,"p093","cross_grey","cross","","",NA,2943.69999999925,"fixed_associations","p001-p093","grey",NA
49,"p001","director",1,49,208,1449483,"p093","hexagon_yellow","hexagon","","",NA,948.799999998882,"fixed_associations","p001-p093","yellow",NA
51,"p001","director",1,51,215,1472089,"p093","circle_red","circle","","",NA,2154.40000000037,"fixed_associations","p001-p093","red",NA
53,"p001","director",1,53,222,1489293,"p093","cross_grey","cross","","",NA,1016.80000000075,"fixed_associations","p001-p093","grey",NA
55,"p001","director",1,55,229,1503019,"p093","star_pink","star","","",NA,1055,"fixed_associations","p001-p093","pink",NA
57,"p001","director",1,57,236,1518963,"p093","cross_grey","cross","","",NA,2410.10000000149,"fixed_associations","p001-p093","grey",NA
59,"p001","director",1,59,243,1533569,"p093","star_pink","star","","",NA,1297.19999999925,"fixed_associations","p001-p093","pink",NA
61,"p001","director",1,61,250,1548571,"p093","hexagon_yellow","hexagon","","",NA,2410.30000000075,"fixed_associations","p001-p093","yellow",NA
63,"p001","director",1,63,257,1562773,"p093","circle_red","circle","","",NA,1096.09999999963,"fixed_associations","p001-p093","red",NA
65,"p001","director",1,65,264,1577339,"p093","hexagon_yellow","hexagon","","",NA,1261.19999999925,"fixed_associations","p001-p093","yellow",NA
67,"p001","director",1,67,271,1598499,"p093","cross_grey","cross","","",NA,3296.5,"fixed_associations","p001-p093","grey",NA
69,"p001","director",1,69,278,1614716,"p093","circle_red","circle","","",NA,4509.5,"fixed_associations","p001-p093","red",NA
71,"p001","director",1,71,285,1638172,"p093","star_pink","star","","",NA,5537.70000000112,"fixed_associations","p001-p093","pink",NA
73,"p001","director",2,73,294,1674478,"p093","splat_yellow","circle","","",NA,14616.8000000007,"fixed_associations","p001-p093","yellow",0
75,"p001","director",2,75,301,1715382,"p093","splat_grey","circle","","",NA,3605.80000000075,"fixed_associations","p001-p093","grey",0
77,"p001","director",2,77,308,1747602,"p093","splat_red","cross","","",NA,2942.40000000037,"fixed_associations","p001-p093","red",0
79,"p001","director",2,79,315,1782787,"p093","splat_pink","circle","","",NA,2267.19999999925,"fixed_associations","p001-p093","pink",0
81,"p001","director",2,81,322,1802383,"p093","splat_grey","star","","",NA,1503.90000000037,"fixed_associations","p001-p093","grey",0
83,"p001","director",2,83,329,1826619,"p093","splat_pink","hexagon","","",NA,3026.60000000149,"fixed_associations","p001-p093","pink",0
85,"p001","director",2,85,336,1855325,"p093","splat_yellow","circle","","",NA,6031.09999999963,"fixed_associations","p001-p093","yellow",0
87,"p001","director",2,87,343,1875683,"p093","splat_red","hexagon","","",NA,4956.40000000037,"fixed_associations","p001-p093","red",0
89,"p001","director",2,89,350,1896940,"p093","splat_pink","hexagon","","",NA,7456.30000000075,"fixed_associations","p001-p093","pink",0
91,"p001","director",2,91,357,1911941,"p093","splat_red","hexagon","","",NA,2500.79999999888,"fixed_associations","p001-p093","red",0
93,"p001","director",2,93,364,1929495,"p093","splat_grey","cross","","",NA,2194,"fixed_associations","p001-p093","grey",1
95,"p001","director",2,95,371,1948475,"p093","splat_yellow","circle","","",NA,4239.10000000149,"fixed_associations","p001-p093","yellow",0
97,"p001","director",2,97,378,1987838,"p093","splat_pink","hexagon","","",NA,5226.69999999925,"fixed_associations","p001-p093","pink",0
99,"p001","director",2,99,385,2005947,"p093","splat_yellow","circle","","",NA,2570.5,"fixed_associations","p001-p093","yellow",0
101,"p001","director",2,101,392,2026480,"p093","splat_grey","star","","",NA,5099.29999999888,"fixed_associations","p001-p093","grey",0
103,"p001","director",2,103,399,2046036,"p093","splat_red","cross","","",NA,6591.09999999963,"fixed_associations","p001-p093","red",0
105,"p001","director",3,105,406,2065508,"p093","hexagon_pink","hexagon","","",NA,3614.19999999925,"fixed_associations","p001-p093","pink",1
107,"p001","director",3,107,413,2086900,"p093","star_grey","star","","",NA,1801.5,"fixed_associations","p001-p093","grey",1
109,"p001","director",3,109,420,2114754,"p093","hexagon_red","hexagon","","",NA,6831.69999999925,"fixed_associations","p001-p093","red",0
111,"p001","director",3,111,427,2135112,"p093","cross_yellow","cross","","",NA,3612.89999999851,"fixed_associations","p001-p093","yellow",0
113,"p001","director",3,113,434,2158145,"p093","star_yellow","star","","",NA,7578,"fixed_associations","p001-p093","yellow",0
115,"p001","director",3,115,441,2172849,"p093","circle_grey","circle","","",NA,1650.20000000112,"fixed_associations","p001-p093","grey",0
117,"p001","director",3,117,448,2197502,"p093","hexagon_red","hexagon","","",NA,1619.59999999963,"fixed_associations","p001-p093","red",0
119,"p001","director",3,119,455,2211708,"p093","circle_pink","hexagon","","",NA,1506.09999999963,"fixed_associations","p001-p093","pink",1
121,"p001","director",3,121,462,2229287,"p093","star_yellow","cross","","",NA,2925.90000000037,"fixed_associations","p001-p093","yellow",0
123,"p001","director",3,123,469,2247759,"p093","hexagon_red","circle","","",NA,2377.30000000075,"fixed_associations","p001-p093","red",0
125,"p001","director",3,125,476,2262829,"p093","hexagon_grey","hexagon","","",NA,1874.20000000112,"fixed_associations","p001-p093","grey",0
127,"p001","director",3,127,483,2279120,"p093","cross_pink","cross","","",NA,2607.79999999888,"fixed_associations","p001-p093","pink",0
129,"p001","director",3,129,490,2291617,"p093","cross_pink","cross","","",NA,1283,"fixed_associations","p001-p093","pink",0
131,"p001","director",3,131,497,2305204,"p093","cross_red","cross","","",NA,1404.29999999888,"fixed_associations","p001-p093","red",1
133,"p001","director",3,133,504,2319386,"p093","star_grey","star","","",NA,1009.60000000149,"fixed_associations","p001-p093","grey",1
135,"p001","director",3,135,511,2336426,"p093","cross_yellow","cross","","",NA,2275.30000000075,"fixed_associations","p001-p093","yellow",0
137,"p001","director",4,137,520,2381876,"p093","pig","star","","",NA,9512.69999999925,"fixed_associations","p001-p093","pig",0
139,"p001","director",4,139,527,2408628,"p093","city","star","","",NA,1954,"fixed_associations","p001-p093","city",1
141,"p001","director",4,141,534,2434208,"p093","volcano","star","","",NA,3384.40000000037,"fixed_associations","p001-p093","volcano",0
143,"p001","director",4,143,541,2466330,"p093","banana","star","","",NA,9265.5,"fixed_associations","p001-p093","banana",0
145,"p001","director",4,145,548,2504626,"p093","pig","star","","",NA,5081.30000000075,"fixed_associations","p001-p093","pig",0
147,"p001","director",4,147,555,2534629,"p093","volcano","star","","",NA,1500.90000000037,"fixed_associations","p001-p093","volcano",0
149,"p001","director",4,149,562,2550178,"p093","city","cross","","",NA,2959.69999999925,"fixed_associations","p001-p093","city",0
151,"p001","director",4,151,569,2571205,"p093","banana","star","","",NA,5869.09999999963,"fixed_associations","p001-p093","banana",0
153,"p001","director",4,153,576,2595037,"p093","city","cross","","",NA,4797.5,"fixed_associations","p001-p093","city",0
155,"p001","director",4,155,583,2630089,"p093","volcano","cross","","",NA,4245.59999999963,"fixed_associations","p001-p093","volcano",0
157,"p001","director",4,157,590,2653465,"p093","pig","circle","","",NA,4743.40000000037,"fixed_associations","p001-p093","pig",0
159,"p001","director",4,159,597,2675549,"p093","banana","star","","",NA,2969.09999999963,"fixed_associations","p001-p093","banana",0
161,"p001","director",4,161,604,2694576,"p093","volcano","cross","","",NA,3930.70000000112,"fixed_associations","p001-p093","volcano",0
163,"p001","director",4,163,611,2718110,"p093","pig","circle","","",NA,5596.40000000037,"fixed_associations","p001-p093","pig",0
165,"p001","director",4,165,618,2734746,"p093","city","cross","","",NA,3928,"fixed_associations","p001-p093","city",0
167,"p001","director",4,167,625,2752452,"p093","banana","star","","",NA,3077,"fixed_associations","p001-p093","banana",0
169,"p001","director",5,169,632,2786514,"p093","angry","cross","","",NA,3503.59999999963,"fixed_associations","p001-p093","angry",0
171,"p001","director",5,171,639,2804618,"p093","sad","star","","",NA,1438.5,"fixed_associations","p001-p093","sad",1
173,"p001","director",5,173,646,2823698,"p093","inlove","hexagon","","",NA,2175.90000000037,"fixed_associations","p001-p093","inlove",0
175,"p001","director",5,175,653,2848878,"p093","happy","hexagon","","",NA,2735.19999999925,"fixed_associations","p001-p093","happy",0
177,"p001","director",5,177,660,2876284,"p093","inlove","star","","",NA,2552.39999999851,"fixed_associations","p001-p093","inlove",0
179,"p001","director",5,179,667,2892014,"p093","angry","cross","","",NA,1457.69999999925,"fixed_associations","p001-p093","angry",0
181,"p001","director",5,181,674,2915179,"p093","sad","circle","","",NA,1132.80000000075,"fixed_associations","p001-p093","sad",0
183,"p001","director",5,183,681,2935349,"p093","happy","hexagon","","",NA,1692.09999999963,"fixed_associations","p001-p093","happy",0
185,"p001","director",5,185,688,2956601,"p093","sad","circle","","",NA,4506.59999999963,"fixed_associations","p001-p093","sad",0
187,"p001","director",5,187,695,2978157,"p093","angry","cross","","",NA,2728.40000000037,"fixed_associations","p001-p093","angry",0
189,"p001","director",5,189,702,2997612,"p093","happy","hexagon","","",NA,5224.90000000037,"fixed_associations","p001-p093","happy",0
191,"p001","director",5,191,709,3015229,"p093","inlove","star","","",NA,1451.89999999851,"fixed_associations","p001-p093","inlove",0
193,"p001","director",5,193,716,3028500,"p093","inlove","star","","",NA,1228.5,"fixed_associations","p001-p093","inlove",0
195,"p001","director",5,195,723,3043976,"p093","happy","hexagon","","",NA,1680.40000000037,"fixed_associations","p001-p093","happy",0
197,"p001","director",5,197,730,3060844,"p093","angry","cross","","",NA,2265.09999999963,"fixed_associations","p001-p093","angry",0
199,"p001","director",5,199,737,3077578,"p093","sad","circle","","",NA,1890.40000000037,"fixed_associations","p001-p093","sad",0
209,"p002","director",1,9,67,435621,"p050","circle_yellow","circle","","",NA,2672.39999985695,"random_associations","p002-p050","yellow",NA
211,"p002","director",1,11,74,452351,"p050","diamond_yellow","diamond","","",NA,1449.5,"random_associations","p002-p050","yellow",NA
213,"p002","director",1,13,81,467533,"p050","cross_grey","cross","","",NA,1319.69999980927,"random_associations","p002-p050","grey",NA
215,"p002","director",1,15,88,482562,"p050","pentagon_pink","pentagon","","",NA,1571.39999985695,"random_associations","p002-p050","pink",NA
217,"p002","director",1,17,95,497158,"p050","diamond_grey","diamond","","",NA,1706.59999990463,"random_associations","p002-p050","grey",NA
219,"p002","director",1,19,102,511431,"p050","pentagon_pink","pentagon","","",NA,1134.79999995232,"random_associations","p002-p050","pink",NA
221,"p002","director",1,21,109,525363,"p050","cross_pink","cross","","",NA,1815.29999995232,"random_associations","p002-p050","pink",NA
223,"p002","director",1,23,116,538841,"p050","circle_yellow","circle","","",NA,1280,"random_associations","p002-p050","yellow",NA
225,"p002","director",1,25,123,553085,"p050","circle_red","circle","","",NA,1386.20000004768,"random_associations","p002-p050","red",NA
227,"p002","director",1,27,130,567043,"p050","cross_yellow","cross","","",NA,1734.89999985695,"random_associations","p002-p050","yellow",NA
229,"p002","director",1,29,137,581202,"p050","pentagon_grey","pentagon","","",NA,1955.30000019073,"random_associations","p002-p050","grey",NA
231,"p002","director",1,31,144,594813,"p050","diamond_grey","diamond","","",NA,1703.20000004768,"random_associations","p002-p050","grey",NA
233,"p002","director",1,33,151,607993,"p050","circle_yellow","circle","","",NA,1488.59999990463,"random_associations","p002-p050","yellow",NA
235,"p002","director",1,35,158,621159,"p050","pentagon_pink","pentagon","","",NA,1307.79999995232,"random_associations","p002-p050","pink",NA
237,"p002","director",1,37,165,635311,"p050","diamond_pink","diamond","","",NA,1721.40000009537,"random_associations","p002-p050","pink",NA
239,"p002","director",1,39,172,648519,"p050","cross_red","cross","","",NA,1449.29999995232,"random_associations","p002-p050","red",NA
241,"p002","director",1,41,179,662748,"p050","circle_grey","circle","","",NA,1818.90000009537,"random_associations","p002-p050","grey",NA
243,"p002","director",1,43,186,675350,"p050","cross_red","cross","","",NA,1250.5,"random_associations","p002-p050","red",NA
245,"p002","director",1,45,193,688911,"p050","pentagon_grey","pentagon","","",NA,1213.29999995232,"random_associations","p002-p050","grey",NA
247,"p002","director",1,47,200,703511,"p050","diamond_grey","diamond","","",NA,1782.09999990463,"random_associations","p002-p050","grey",NA
249,"p002","director",1,49,207,717689,"p050","pentagon_grey","pentagon","","",NA,1794.70000004768,"random_associations","p002-p050","grey",NA
251,"p002","director",1,51,214,731511,"p050","cross_pink","cross","","",NA,1234.70000004768,"random_associations","p002-p050","pink",NA
253,"p002","director",1,53,221,746295,"p050","diamond_grey","diamond","","",NA,1849.89999985695,"random_associations","p002-p050","grey",NA
255,"p002","director",1,55,228,759065,"p050","circle_pink","circle","","",NA,1401.39999985695,"random_associations","p002-p050","pink",NA
257,"p002","director",1,57,235,775353,"p050","circle_yellow","circle","","",NA,1372,"random_associations","p002-p050","yellow",NA
259,"p002","director",1,59,242,789007,"p050","pentagon_grey","pentagon","","",NA,1430.5,"random_associations","p002-p050","grey",NA
261,"p002","director",1,61,249,802400,"p050","diamond_red","diamond","","",NA,1993.70000004768,"random_associations","p002-p050","red",NA
263,"p002","director",1,63,256,816516,"p050","cross_grey","cross","","",NA,1755.89999985695,"random_associations","p002-p050","grey",NA
265,"p002","director",1,65,263,830128,"p050","diamond_grey","diamond","","",NA,1770.89999985695,"random_associations","p002-p050","grey",NA
267,"p002","director",1,67,270,843227,"p050","pentagon_red","pentagon","","",NA,1646.20000004768,"random_associations","p002-p050","red",NA
269,"p002","director",1,69,277,856812,"p050","circle_red","circle","","",NA,1390.30000019073,"random_associations","p002-p050","red",NA
271,"p002","director",1,71,284,870222,"p050","cross_grey","cross","","",NA,1472.39999985695,"random_associations","p002-p050","grey",NA
273,"p002","director",2,73,293,895027,"p050","splat_yellow","cross","","",NA,4205.29999995232,"random_associations","p002-p050","yellow",0
275,"p002","director",2,75,300,925301,"p050","splat_grey","cross","","",NA,5279.79999995232,"random_associations","p002-p050","grey",0
277,"p002","director",2,77,307,943349,"p050","splat_pink","cross","","",NA,1603.39999985695,"random_associations","p002-p050","pink",1
279,"p002","director",2,79,314,965536,"p050","splat_red","circle","","",NA,6095,"random_associations","p002-p050","red",1
281,"p002","director",2,81,321,985775,"p050","splat_grey","diamond","","",NA,1532.89999985695,"random_associations","p002-p050","grey",0
283,"p002","director",2,83,328,1007220,"p050","splat_pink","pentagon","","",NA,1999.40000009537,"random_associations","p002-p050","pink",0
285,"p002","director",2,85,335,1027851,"p050","splat_yellow","pentagon","","",NA,4082.89999985695,"random_associations","p002-p050","yellow",0
287,"p002","director",2,87,342,1042650,"p050","splat_red","cross","","",NA,1412.89999985695,"random_associations","p002-p050","red",0
289,"p002","director",2,89,349,1059291,"p050","splat_red","cross","","",NA,1344.40000009537,"random_associations","p002-p050","red",0
291,"p002","director",2,91,356,1079794,"p050","splat_pink","circle","","",NA,4227.69999980927,"random_associations","p002-p050","pink",0
293,"p002","director",2,93,363,1098879,"p050","splat_grey","cross","","",NA,1721.09999990463,"random_associations","p002-p050","grey",0
295,"p002","director",2,95,370,1113029,"p050","splat_yellow","pentagon","","",NA,1800.5,"random_associations","p002-p050","yellow",0
297,"p002","director",2,97,377,1132802,"p050","splat_yellow","pentagon","","",NA,1848.5,"random_associations","p002-p050","yellow",0
299,"p002","director",2,99,384,1153296,"p050","splat_grey","diamond","","",NA,3060.09999990463,"random_associations","p002-p050","grey",0
301,"p002","director",2,101,391,1173658,"p050","splat_red","cross","","",NA,1256.10000014305,"random_associations","p002-p050","red",0
303,"p002","director",2,103,398,1192226,"p050","splat_pink","circle","","",NA,4263.39999985695,"random_associations","p002-p050","pink",0
305,"p002","director",3,105,405,1211018,"p050","circle_yellow","circle","","",NA,2068.80000019073,"random_associations","p002-p050","yellow",0
307,"p002","director",3,107,412,1236844,"p050","cross_red","cross","","",NA,4915.79999995232,"random_associations","p002-p050","red",1
309,"p002","director",3,109,419,1261577,"p050","cross_grey","pentagon","","",NA,5450.59999990463,"random_associations","p002-p050","grey",0
311,"p002","director",3,111,426,1284110,"p050","pentagon_pink","circle","","",NA,3214.59999990463,"random_associations","p002-p050","pink",0
313,"p002","director",3,113,433,1302685,"p050","diamond_yellow","pentagon","","",NA,3854.5,"random_associations","p002-p050","yellow",1
315,"p002","director",3,115,440,1318521,"p050","cross_pink","pentagon","","",NA,2545,"random_associations","p002-p050","pink",1
317,"p002","director",3,117,447,1339608,"p050","pentagon_red","cross","","",NA,4123.70000004768,"random_associations","p002-p050","red",1
319,"p002","director",3,119,454,1357832,"p050","diamond_grey","diamond","","",NA,4275.39999985695,"random_associations","p002-p050","grey",0
321,"p002","director",3,121,461,1377515,"p050","cross_pink","pentagon","","",NA,2886.29999995232,"random_associations","p002-p050","pink",1
323,"p002","director",3,123,468,1394115,"p050","diamond_grey","diamond","","",NA,2454.20000004768,"random_associations","p002-p050","grey",0
325,"p002","director",3,125,475,1413717,"p050","pentagon_yellow","diamond","","",NA,4233,"random_associations","p002-p050","yellow",0
327,"p002","director",3,127,482,1434075,"p050","cross_red","cross","","",NA,1756.39999985695,"random_associations","p002-p050","red",1
329,"p002","director",3,129,489,1455325,"p050","diamond_pink","pentagon","","",NA,1919.19999980927,"random_associations","p002-p050","pink",1
331,"p002","director",3,131,496,1475654,"p050","circle_grey","diamond","","",NA,2698.5,"random_associations","p002-p050","grey",0
333,"p002","director",3,133,503,1494545,"p050","circle_red","cross","","",NA,1727.09999990463,"random_associations","p002-p050","red",1
335,"p002","director",3,135,510,1515404,"p050","circle_yellow","pentagon","","",NA,3527.69999980927,"random_associations","p002-p050","yellow",1
337,"p002","director",4,137,519,1557000,"p050","city","pentagon","","",NA,5147.90000009537,"random_associations","p002-p050","city",0
339,"p002","director",4,139,526,1581223,"p050","banana","cross","","",NA,4740.20000004768,"random_associations","p002-p050","banana",0
341,"p002","director",4,141,533,1603977,"p050","pig","circle","","",NA,3476.39999985695,"random_associations","p002-p050","pig",0
343,"p002","director",4,143,540,1626185,"p050","volcano","diamond","","",NA,6277.20000004768,"random_associations","p002-p050","volcano",0
345,"p002","director",4,145,547,1653723,"p050","city","pentagon","","",NA,1737.5,"random_associations","p002-p050","city",0
347,"p002","director",4,147,554,1676723,"p050","banana","cross","","",NA,3918.59999990463,"random_associations","p002-p050","banana",0
349,"p002","director",4,149,561,1695575,"p050","volcano","pentagon","","",NA,4517.39999985695,"random_associations","p002-p050","volcano",0
351,"p002","director",4,151,568,1714187,"p050","pig","circle","","",NA,1539.20000004768,"random_associations","p002-p050","pig",0
353,"p002","director",4,153,575,1737726,"p050","banana","cross","","",NA,1779.30000019073,"random_associations","p002-p050","banana",0
355,"p002","director",4,155,582,1755276,"p050","volcano","pentagon","","",NA,2852.20000004768,"random_associations","p002-p050","volcano",0
357,"p002","director",4,157,589,1770610,"p050","pig","circle","","",NA,1800.70000004768,"random_associations","p002-p050","pig",0
359,"p002","director",4,159,596,1787310,"p050","city","diamond","","",NA,4825.5,"random_associations","p002-p050","city",1
361,"p002","director",4,161,603,1805007,"p050","pig","circle","","",NA,1856.29999995232,"random_associations","p002-p050","pig",0
363,"p002","director",4,163,610,1819260,"p050","volcano","pentagon","","",NA,1792.20000004768,"random_associations","p002-p050","volcano",0
365,"p002","director",4,165,617,1836072,"p050","city","diamond","","",NA,1571.10000014305,"random_associations","p002-p050","city",1
367,"p002","director",4,167,624,1851675,"p050","banana","cross","","",NA,1317,"random_associations","p002-p050","banana",0
369,"p002","director",5,169,631,1875105,"p050","sad","diamond","","",NA,8116.20000004768,"random_associations","p002-p050","sad",1
371,"p002","director",5,171,638,1900253,"p050","angry","cross","","",NA,1603,"random_associations","p002-p050","angry",1
373,"p002","director",5,173,645,1917075,"p050","inlove","circle","","",NA,3590.5,"random_associations","p002-p050","inlove",0
375,"p002","director",5,175,652,1937622,"p050","happy","pentagon","","",NA,5231.80000019073,"random_associations","p002-p050","happy",0
377,"p002","director",5,177,659,1960862,"p050","inlove","circle","","",NA,2786.20000004768,"random_associations","p002-p050","inlove",0
379,"p002","director",5,179,666,1977839,"p050","angry","cross","","",NA,2112.39999985695,"random_associations","p002-p050","angry",1
381,"p002","director",5,181,673,1995130,"p050","sad","diamond","","",NA,4115.60000014305,"random_associations","p002-p050","sad",1
383,"p002","director",5,183,680,2014964,"p050","happy","pentagon","","",NA,1644.5,"random_associations","p002-p050","happy",0
385,"p002","director",5,185,687,2034589,"p050","angry","cross","","",NA,1497.70000004768,"random_associations","p002-p050","angry",1
387,"p002","director",5,187,694,2053330,"p050","sad","diamond","","",NA,3740.10000014305,"random_associations","p002-p050","sad",1
389,"p002","director",5,189,701,2071204,"p050","inlove","circle","","",NA,1842.69999980927,"random_associations","p002-p050","inlove",0
391,"p002","director",5,191,708,2087329,"p050","happy","pentagon","","",NA,1437,"random_associations","p002-p050","happy",0
393,"p002","director",5,193,715,2101991,"p050","angry","cross","","",NA,2019.20000004768,"random_associations","p002-p050","angry",1
395,"p002","director",5,195,722,2117322,"p050","inlove","circle","","",NA,1899.90000009537,"random_associations","p002-p050","inlove",0
397,"p002","director",5,197,729,2132441,"p050","sad","diamond","","",NA,2393,"random_associations","p002-p050","sad",1
399,"p002","director",5,199,736,2148152,"p050","happy","pentagon","","",NA,2096.5,"random_associations","p002-p050","happy",0
410,"p003","director",1,10,70,213788,"p043","star_yellow","star","","",NA,2409.09999999986,"fixed_associations","p003-p043","yellow",NA
412,"p003","director",1,12,77,226979,"p043","diamond_red","diamond","","",NA,1509.19999999995,"fixed_associations","p003-p043","red",NA
414,"p003","director",1,14,84,240573,"p043","cross_pink","cross","","",NA,1212.90000000014,"fixed_associations","p003-p043","pink",NA
416,"p003","director",1,16,91,255342,"p043","square_grey","square","","",NA,1269.39999999991,"fixed_associations","p003-p043","grey",NA
418,"p003","director",1,18,98,268268,"p043","diamond_red","diamond","","",NA,1420.39999999991,"fixed_associations","p003-p043","red",NA
420,"p003","director",1,20,105,280694,"p043","cross_pink","cross","","",NA,1081.5,"fixed_associations","p003-p043","pink",NA
422,"p003","director",1,22,112,293230,"p043","square_grey","square","","",NA,1301.39999999991,"fixed_associations","p003-p043","grey",NA
424,"p003","director",1,24,119,306069,"p043","star_yellow","star","","",NA,1201.39999999991,"fixed_associations","p003-p043","yellow",NA
426,"p003","director",1,26,126,318810,"p043","cross_pink","cross","","",NA,1167.5,"fixed_associations","p003-p043","pink",NA
428,"p003","director",1,28,133,331390,"p043","star_yellow","star","","",NA,1173.90000000014,"fixed_associations","p003-p043","yellow",NA
430,"p003","director",1,30,140,344020,"p043","diamond_red","diamond","","",NA,1396.30000000005,"fixed_associations","p003-p043","red",NA
432,"p003","director",1,32,147,355744,"p043","square_grey","square","","",NA,834.799999999814,"fixed_associations","p003-p043","grey",NA
434,"p003","director",1,34,154,367365,"p043","square_grey","square","","",NA,1187.69999999995,"fixed_associations","p003-p043","grey",NA
436,"p003","director",1,36,161,379507,"p043","cross_pink","cross","","",NA,1133.69999999995,"fixed_associations","p003-p043","pink",NA
438,"p003","director",1,38,168,392175,"p043","star_yellow","star","","",NA,1480.19999999995,"fixed_associations","p003-p043","yellow",NA
440,"p003","director",1,40,175,404880,"p043","diamond_red","diamond","","",NA,1262,"fixed_associations","p003-p043","red",NA
442,"p003","director",1,42,182,416738,"p043","cross_pink","cross","","",NA,960.5,"fixed_associations","p003-p043","pink",NA
444,"p003","director",1,44,189,429020,"p043","diamond_red","diamond","","",NA,1240.80000000005,"fixed_associations","p003-p043","red",NA
446,"p003","director",1,46,196,440914,"p043","square_grey","square","","",NA,1181.60000000009,"fixed_associations","p003-p043","grey",NA
448,"p003","director",1,48,203,452832,"p043","star_yellow","star","","",NA,1158.5,"fixed_associations","p003-p043","yellow",NA
450,"p003","director",1,50,210,465010,"p043","square_grey","square","","",NA,1117.80000000005,"fixed_associations","p003-p043","grey",NA
452,"p003","director",1,52,217,476704,"p043","cross_pink","cross","","",NA,915.800000000047,"fixed_associations","p003-p043","pink",NA
454,"p003","director",1,54,224,488175,"p043","diamond_red","diamond","","",NA,966.5,"fixed_associations","p003-p043","red",NA
456,"p003","director",1,56,231,500151,"p043","star_yellow","star","","",NA,1469.60000000009,"fixed_associations","p003-p043","yellow",NA
458,"p003","director",1,58,238,511699,"p043","square_grey","square","","",NA,1083.89999999991,"fixed_associations","p003-p043","grey",NA
460,"p003","director",1,60,245,523359,"p043","diamond_red","diamond","","",NA,1183,"fixed_associations","p003-p043","red",NA
462,"p003","director",1,62,252,534975,"p043","star_yellow","star","","",NA,996.200000000186,"fixed_associations","p003-p043","yellow",NA
464,"p003","director",1,64,259,547886,"p043","cross_pink","cross","","",NA,1128.10000000009,"fixed_associations","p003-p043","pink",NA
466,"p003","director",1,66,266,559649,"p043","square_grey","square","","",NA,958.699999999721,"fixed_associations","p003-p043","grey",NA
468,"p003","director",1,68,273,571026,"p043","diamond_red","diamond","","",NA,1128,"fixed_associations","p003-p043","red",NA
470,"p003","director",1,70,280,583187,"p043","star_yellow","star","","",NA,1288.29999999981,"fixed_associations","p003-p043","yellow",NA
472,"p003","director",1,72,287,595412,"p043","cross_pink","cross","","",NA,882.5,"fixed_associations","p003-p043","pink",NA
474,"p003","director",2,74,296,624538,"p043","splat_yellow","star","","",NA,4060.5,"fixed_associations","p003-p043","yellow",1
476,"p003","director",2,76,303,639519,"p043","splat_grey","square","","",NA,1325.89999999991,"fixed_associations","p003-p043","grey",1
478,"p003","director",2,78,310,655105,"p043","splat_red","diamond","","",NA,2540.79999999981,"fixed_associations","p003-p043","red",1
480,"p003","director",2,80,317,667284,"p043","splat_pink","cross","","",NA,1054,"fixed_associations","p003-p043","pink",1
482,"p003","director",2,82,324,680034,"p043","splat_grey","square","","",NA,1054.79999999981,"fixed_associations","p003-p043","grey",1
484,"p003","director",2,84,331,692934,"p043","splat_pink","cross","","",NA,1197,"fixed_associations","p003-p043","pink",1
486,"p003","director",2,86,338,705476,"p043","splat_red","diamond","","",NA,1868.59999999963,"fixed_associations","p003-p043","red",1
488,"p003","director",2,88,345,719949,"p043","splat_yellow","star","","",NA,1332.20000000019,"fixed_associations","p003-p043","yellow",1
490,"p003","director",2,90,352,733095,"p043","splat_grey","square","","",NA,1307.29999999981,"fixed_associations","p003-p043","grey",1
492,"p003","director",2,92,359,745744,"p043","splat_pink","cross","","",NA,1172.70000000019,"fixed_associations","p003-p043","pink",1
494,"p003","director",2,94,366,757924,"p043","splat_yellow","star","","",NA,986.100000000093,"fixed_associations","p003-p043","yellow",1
496,"p003","director",2,96,373,772645,"p043","splat_red","diamond","","",NA,1999.30000000028,"fixed_associations","p003-p043","red",1
498,"p003","director",2,98,380,786676,"p043","splat_red","diamond","","",NA,2437.89999999991,"fixed_associations","p003-p043","red",1
500,"p003","director",2,100,387,798986,"p043","splat_yellow","star","","",NA,1077.69999999972,"fixed_associations","p003-p043","yellow",1
502,"p003","director",2,102,394,813363,"p043","splat_pink","cross","","",NA,3811.10000000009,"fixed_associations","p003-p043","pink",1
504,"p003","director",2,104,401,825296,"p043","splat_grey","square","","",NA,1121.5,"fixed_associations","p003-p043","grey",1
506,"p003","director",3,106,408,842340,"p043","star_grey","star","","",NA,3822.19999999972,"fixed_associations","p003-p043","grey",0
508,"p003","director",3,108,415,866252,"p043","star_pink","cross","","",NA,9479.60000000009,"fixed_associations","p003-p043","pink",1
510,"p003","director",3,110,422,883586,"p043","star_red","diamond","","",NA,1937.89999999991,"fixed_associations","p003-p043","red",1
512,"p003","director",3,112,429,900894,"p043","square_yellow","star","","",NA,3452.20000000019,"fixed_associations","p003-p043","yellow",1
514,"p003","director",3,114,436,915390,"p043","star_pink","cross","","",NA,1998.09999999963,"fixed_associations","p003-p043","pink",1
516,"p003","director",3,116,443,933427,"p043","cross_yellow","star","","",NA,1394.39999999991,"fixed_associations","p003-p043","yellow",1
518,"p003","director",3,118,450,947171,"p043","star_red","diamond","","",NA,2079.20000000019,"fixed_associations","p003-p043","red",1
520,"p003","director",3,120,457,971430,"p043","star_grey","square","","",NA,9916.89999999991,"fixed_associations","p003-p043","grey",1
522,"p003","director",3,122,464,990915,"p043","star_pink","cross","","",NA,6425.09999999963,"fixed_associations","p003-p043","pink",1
524,"p003","director",3,124,471,1007688,"p043","diamond_grey","square","","",NA,5041.10000000009,"fixed_associations","p003-p043","grey",1
526,"p003","director",3,126,478,1026937,"p043","star_red","diamond","","",NA,6476.5,"fixed_associations","p003-p043","red",1
528,"p003","director",3,128,485,1042645,"p043","diamond_yellow","star","","",NA,1693.09999999963,"fixed_associations","p003-p043","yellow",1
530,"p003","director",3,130,492,1056793,"p043","star_grey","square","","",NA,2280.80000000028,"fixed_associations","p003-p043","grey",1
532,"p003","director",3,132,499,1069779,"p043","diamond_pink","cross","","",NA,1479.20000000019,"fixed_associations","p003-p043","pink",1
534,"p003","director",3,134,506,1085463,"p043","cross_red","diamond","","",NA,1957.79999999981,"fixed_associations","p003-p043","red",1
536,"p003","director",3,136,513,1098905,"p043","cross_yellow","star","","",NA,1568.29999999981,"fixed_associations","p003-p043","yellow",1
538,"p003","director",4,138,522,1121035,"p043","volcano","diamond","","",NA,2220.79999999981,"fixed_associations","p003-p043","volcano",1
540,"p003","director",4,140,529,1137743,"p043","pig","cross","","",NA,2913.79999999981,"fixed_associations","p003-p043","pig",1
542,"p003","director",4,142,536,1156536,"p043","city","square","","",NA,1169.09999999963,"fixed_associations","p003-p043","city",1
544,"p003","director",4,144,543,1171063,"p043","banana","star","","",NA,1271.09999999963,"fixed_associations","p003-p043","banana",1
546,"p003","director",4,146,550,1184929,"p043","volcano","diamond","","",NA,1222,"fixed_associations","p003-p043","volcano",1
548,"p003","director",4,148,557,1199091,"p043","banana","star","","",NA,1124.5,"fixed_associations","p003-p043","banana",1
550,"p003","director",4,150,564,1211871,"p043","city","square","","",NA,1290.5,"fixed_associations","p003-p043","city",1
552,"p003","director",4,152,571,1226908,"p043","pig","cross","","",NA,1375.20000000019,"fixed_associations","p003-p043","pig",1
554,"p003","director",4,154,578,1239606,"p043","volcano","diamond","","",NA,1212.69999999972,"fixed_associations","p003-p043","volcano",1
556,"p003","director",4,156,585,1252640,"p043","city","square","","",NA,1443.29999999981,"fixed_associations","p003-p043","city",1
558,"p003","director",4,158,592,1266180,"p043","banana","star","","",NA,1179.30000000028,"fixed_associations","p003-p043","banana",1
560,"p003","director",4,160,599,1280336,"p043","pig","cross","","",NA,1522.30000000028,"fixed_associations","p003-p043","pig",1
562,"p003","director",4,162,606,1292623,"p043","banana","star","","",NA,1051.89999999991,"fixed_associations","p003-p043","banana",1
564,"p003","director",4,164,613,1307003,"p043","pig","cross","","",NA,2263.5,"fixed_associations","p003-p043","pig",1
566,"p003","director",4,166,620,1319497,"p043","city","square","","",NA,1490.39999999991,"fixed_associations","p003-p043","city",1
568,"p003","director",4,168,627,1333904,"p043","volcano","diamond","","",NA,2616.69999999972,"fixed_associations","p003-p043","volcano",1
570,"p003","director",5,170,634,1358088,"p043","inlove","cross","","",NA,3784.40000000037,"fixed_associations","p003-p043","inlove",1
572,"p003","director",5,172,641,1376647,"p043","happy","star","","",NA,1989.89999999991,"fixed_associations","p003-p043","happy",1
574,"p003","director",5,174,648,1396371,"p043","angry","square","","",NA,3664.69999999972,"fixed_associations","p003-p043","angry",0
576,"p003","director",5,176,655,1412063,"p043","sad","square","","",NA,1440.5,"fixed_associations","p003-p043","sad",1
578,"p003","director",5,178,662,1425681,"p043","sad","square","","",NA,1839.60000000009,"fixed_associations","p003-p043","sad",1
580,"p003","director",5,180,669,1440240,"p043","happy","star","","",NA,1442.79999999981,"fixed_associations","p003-p043","happy",1
582,"p003","director",5,182,676,1454444,"p043","angry","diamond","","",NA,1964.69999999972,"fixed_associations","p003-p043","angry",1
584,"p003","director",5,184,683,1467465,"p043","inlove","cross","","",NA,1321.80000000028,"fixed_associations","p003-p043","inlove",1
586,"p003","director",5,186,690,1480949,"p043","happy","star","","",NA,1598.80000000028,"fixed_associations","p003-p043","happy",1
588,"p003","director",5,188,697,1494166,"p043","angry","diamond","","",NA,890.299999999814,"fixed_associations","p003-p043","angry",1
590,"p003","director",5,190,704,1507227,"p043","inlove","cross","","",NA,1249.90000000037,"fixed_associations","p003-p043","inlove",1
592,"p003","director",5,192,711,1521604,"p043","sad","square","","",NA,2803.09999999963,"fixed_associations","p003-p043","sad",1
594,"p003","director",5,194,718,1535176,"p043","sad","square","","",NA,1040.89999999991,"fixed_associations","p003-p043","sad",1
596,"p003","director",5,196,725,1548898,"p043","angry","diamond","","",NA,1815.20000000019,"fixed_associations","p003-p043","angry",1
598,"p003","director",5,198,732,1562221,"p043","happy","star","","",NA,1194.5,"fixed_associations","p003-p043","happy",1
600,"p003","director",5,200,739,1576434,"p043","inlove","cross","","",NA,1618.20000000019,"fixed_associations","p003-p043","inlove",1
609,"p004","director",1,9,67,291925,"p081","diamond_yellow","diamond","","",NA,1761.30000000075,"fixed_associations","p004-p081","yellow",NA
611,"p004","director",1,11,74,305161,"p081","pentagon_red","pentagon","","",NA,1313.89999999851,"fixed_associations","p004-p081","red",NA
613,"p004","director",1,13,81,318300,"p081","circle_grey","circle","","",NA,1545.5,"fixed_associations","p004-p081","grey",NA
615,"p004","director",1,15,88,330980,"p081","square_pink","square","","",NA,960.900000002235,"fixed_associations","p004-p081","pink",NA
617,"p004","director",1,17,95,343732,"p081","square_pink","square","","",NA,1277.90000000224,"fixed_associations","p004-p081","pink",NA
619,"p004","director",1,19,102,355847,"p081","pentagon_red","pentagon","","",NA,1509,"fixed_associations","p004-p081","red",NA
621,"p004","director",1,21,109,368581,"p081","diamond_yellow","diamond","","",NA,1447.39999999851,"fixed_associations","p004-p081","yellow",NA
623,"p004","director",1,23,116,381079,"p081","circle_grey","circle","","",NA,1353.5,"fixed_associations","p004-p081","grey",NA
625,"p004","director",1,25,123,393780,"p081","diamond_yellow","diamond","","",NA,1454.89999999851,"fixed_associations","p004-p081","yellow",NA
627,"p004","director",1,27,130,406426,"p081","square_pink","square","","",NA,1257.09999999776,"fixed_associations","p004-p081","pink",NA
629,"p004","director",1,29,137,418945,"p081","pentagon_red","pentagon","","",NA,1432.60000000149,"fixed_associations","p004-p081","red",NA
631,"p004","director",1,31,144,431783,"p081","circle_grey","circle","","",NA,1055.60000000149,"fixed_associations","p004-p081","grey",NA
633,"p004","director",1,33,151,444755,"p081","square_pink","square","","",NA,1132.19999999925,"fixed_associations","p004-p081","pink",NA
635,"p004","director",1,35,158,456988,"p081","diamond_yellow","diamond","","",NA,1382.5,"fixed_associations","p004-p081","yellow",NA
637,"p004","director",1,37,165,469410,"p081","circle_grey","circle","","",NA,1539.79999999702,"fixed_associations","p004-p081","grey",NA
639,"p004","director",1,39,172,480974,"p081","pentagon_red","pentagon","","",NA,1322.40000000224,"fixed_associations","p004-p081","red",NA
641,"p004","director",1,41,179,493526,"p081","circle_grey","circle","","",NA,1048.5,"fixed_associations","p004-p081","grey",NA
643,"p004","director",1,43,186,505895,"p081","square_pink","square","","",NA,1135,"fixed_associations","p004-p081","pink",NA
645,"p004","director",1,45,193,518486,"p081","pentagon_red","pentagon","","",NA,1437.70000000298,"fixed_associations","p004-p081","red",NA
647,"p004","director",1,47,200,531118,"p081","diamond_yellow","diamond","","",NA,1477.19999999925,"fixed_associations","p004-p081","yellow",NA
649,"p004","director",1,49,207,544241,"p081","circle_grey","circle","","",NA,1388.80000000075,"fixed_associations","p004-p081","grey",NA
651,"p004","director",1,51,214,556063,"p081","diamond_yellow","diamond","","",NA,1229.09999999776,"fixed_associations","p004-p081","yellow",NA
653,"p004","director",1,53,221,568463,"p081","pentagon_red","pentagon","","",NA,1037.69999999925,"fixed_associations","p004-p081","red",NA
655,"p004","director",1,55,228,581228,"p081","square_pink","square","","",NA,1306.09999999776,"fixed_associations","p004-p081","pink",NA
657,"p004","director",1,57,235,592960,"p081","square_pink","square","","",NA,1262,"fixed_associations","p004-p081","pink",NA
659,"p004","director",1,59,242,604701,"p081","diamond_yellow","diamond","","",NA,1226.40000000224,"fixed_associations","p004-p081","yellow",NA
661,"p004","director",1,61,249,616616,"p081","pentagon_red","pentagon","","",NA,954.79999999702,"fixed_associations","p004-p081","red",NA
663,"p004","director",1,63,256,629445,"p081","circle_grey","circle","","",NA,1189,"fixed_associations","p004-p081","grey",NA
665,"p004","director",1,65,263,641178,"p081","circle_grey","circle","","",NA,1228,"fixed_associations","p004-p081","grey",NA
667,"p004","director",1,67,270,652950,"p081","pentagon_red","pentagon","","",NA,1038.89999999851,"fixed_associations","p004-p081","red",NA
669,"p004","director",1,69,277,664811,"p081","diamond_yellow","diamond","","",NA,1221.20000000298,"fixed_associations","p004-p081","yellow",NA
671,"p004","director",1,71,284,676528,"p081","square_pink","square","","",NA,959.89999999851,"fixed_associations","p004-p081","pink",NA
673,"p004","director",2,73,293,696089,"p081","splat_grey","square","","",NA,4572.69999999925,"fixed_associations","p004-p081","grey",0
675,"p004","director",2,75,300,720915,"p081","splat_yellow","diamond","","",NA,1727.09999999776,"fixed_associations","p004-p081","yellow",1
677,"p004","director",2,77,307,738288,"p081","splat_pink","circle","","",NA,1973.40000000224,"fixed_associations","p004-p081","pink",0
679,"p004","director",2,79,314,758397,"p081","splat_red","pentagon","","",NA,1729.59999999776,"fixed_associations","p004-p081","red",1
681,"p004","director",2,81,321,774798,"p081","splat_pink","square","","",NA,2152.39999999851,"fixed_associations","p004-p081","pink",1
683,"p004","director",2,83,328,788971,"p081","splat_yellow","diamond","","",NA,1580.5,"fixed_associations","p004-p081","yellow",1
685,"p004","director",2,85,335,805713,"p081","splat_red","pentagon","","",NA,1121.89999999851,"fixed_associations","p004-p081","red",1
687,"p004","director",2,87,342,822711,"p081","splat_grey","circle","","",NA,1833.89999999851,"fixed_associations","p004-p081","grey",1
689,"p004","director",2,89,349,835486,"p081","splat_yellow","diamond","","",NA,1397.5,"fixed_associations","p004-p081","yellow",1
691,"p004","director",2,91,356,849612,"p081","splat_pink","square","","",NA,2115.60000000149,"fixed_associations","p004-p081","pink",1
693,"p004","director",2,93,363,863341,"p081","splat_red","pentagon","","",NA,1201,"fixed_associations","p004-p081","red",1
695,"p004","director",2,95,370,877053,"p081","splat_grey","circle","","",NA,1276.90000000224,"fixed_associations","p004-p081","grey",1
697,"p004","director",2,97,377,890391,"p081","splat_yellow","diamond","","",NA,1620,"fixed_associations","p004-p081","yellow",1
699,"p004","director",2,99,384,903212,"p081","splat_pink","square","","",NA,1542.5,"fixed_associations","p004-p081","pink",1
701,"p004","director",2,101,391,917791,"p081","splat_grey","circle","","",NA,2404.19999999925,"fixed_associations","p004-p081","grey",1
703,"p004","director",2,103,398,930597,"p081","splat_red","pentagon","","",NA,1277.69999999925,"fixed_associations","p004-p081","red",1
705,"p004","director",3,105,405,945352,"p081","pentagon_yellow","pentagon","","",NA,2510.5,"fixed_associations","p004-p081","yellow",0
707,"p004","director",3,107,412,970823,"p081","pentagon_pink","pentagon","","",NA,1872.39999999851,"fixed_associations","p004-p081","pink",0
709,"p004","director",3,109,419,995354,"p081","pentagon_grey","pentagon","","",NA,2135.20000000298,"fixed_associations","p004-p081","grey",0
711,"p004","director",3,111,426,1016218,"p081","circle_red","pentagon","","",NA,1495.80000000075,"fixed_associations","p004-p081","red",1
713,"p004","director",3,113,433,1036756,"p081","square_red","pentagon","","",NA,1758.80000000075,"fixed_associations","p004-p081","red",1
715,"p004","director",3,115,440,1056214,"p081","square_grey","circle","","",NA,3400.20000000298,"fixed_associations","p004-p081","grey",1
717,"p004","director",3,117,447,1077919,"p081","pentagon_pink","square","","",NA,2980.80000000075,"fixed_associations","p004-p081","pink",1
719,"p004","director",3,119,454,1097925,"p081","circle_yellow","diamond","","",NA,2917.30000000075,"fixed_associations","p004-p081","yellow",1
721,"p004","director",3,121,461,1120182,"p081","circle_yellow","diamond","","",NA,4925.19999999925,"fixed_associations","p004-p081","yellow",1
723,"p004","director",3,123,468,1140147,"p081","circle_pink","square","","",NA,1622.5,"fixed_associations","p004-p081","pink",1
725,"p004","director",3,125,475,1161440,"p081","circle_red","pentagon","","",NA,4170.5,"fixed_associations","p004-p081","red",1
727,"p004","director",3,127,482,1180848,"p081","diamond_grey","circle","","",NA,2694.19999999925,"fixed_associations","p004-p081","grey",1
729,"p004","director",3,129,489,1198444,"p081","diamond_red","pentagon","","",NA,2772.40000000224,"fixed_associations","p004-p081","red",1
731,"p004","director",3,131,496,1220328,"p081","circle_yellow","diamond","","",NA,4072,"fixed_associations","p004-p081","yellow",1
733,"p004","director",3,133,503,1243047,"p081","diamond_pink","diamond","","",NA,4372.30000000075,"fixed_associations","p004-p081","pink",0
735,"p004","director",3,135,510,1259407,"p081","square_grey","circle","","",NA,3006,"fixed_associations","p004-p081","grey",1
737,"p004","director",4,137,519,1277494,"p081","city","square","","",NA,2988.80000000075,"fixed_associations","p004-p081","city",0
739,"p004","director",4,139,526,1305476,"p081","volcano","diamond","","",NA,3515.39999999851,"fixed_associations","p004-p081","volcano",0
741,"p004","director",4,141,533,1322657,"p081","banana","pentagon","","",NA,2878.19999999925,"fixed_associations","p004-p081","banana",0
743,"p004","director",4,143,540,1339442,"p081","pig","circle","","",NA,1334.5,"fixed_associations","p004-p081","pig",0
745,"p004","director",4,145,547,1355710,"p081","banana","pentagon","","",NA,1321.59999999776,"fixed_associations","p004-p081","banana",0
747,"p004","director",4,147,554,1370005,"p081","city","square","","",NA,1383.80000000075,"fixed_associations","p004-p081","city",0
749,"p004","director",4,149,561,1384181,"p081","volcano","diamond","","",NA,1384.30000000075,"fixed_associations","p004-p081","volcano",0
751,"p004","director",4,151,568,1397768,"p081","pig","circle","","",NA,1242.30000000075,"fixed_associations","p004-p081","pig",0
753,"p004","director",4,153,575,1411324,"p081","pig","circle","","",NA,1228.90000000224,"fixed_associations","p004-p081","pig",0
755,"p004","director",4,155,582,1424959,"p081","volcano","diamond","","",NA,1958.70000000298,"fixed_associations","p004-p081","volcano",0
757,"p004","director",4,157,589,1439248,"p081","banana","pentagon","","",NA,1504,"fixed_associations","p004-p081","banana",0
759,"p004","director",4,159,596,1452653,"p081","city","square","","",NA,1181.30000000075,"fixed_associations","p004-p081","city",0
761,"p004","director",4,161,603,1465247,"p081","pig","circle","","",NA,1080.19999999925,"fixed_associations","p004-p081","pig",0
763,"p004","director",4,163,610,1478626,"p081","volcano","diamond","","",NA,1559.19999999925,"fixed_associations","p004-p081","volcano",0
765,"p004","director",4,165,617,1491409,"p081","banana","pentagon","","",NA,1431.60000000149,"fixed_associations","p004-p081","banana",0
767,"p004","director",4,167,624,1504686,"p081","city","square","","",NA,1197.89999999851,"fixed_associations","p004-p081","city",0
769,"p004","director",5,169,631,1524191,"p081","sad","diamond","","",NA,7686.19999999925,"fixed_associations","p004-p081","sad",0
771,"p004","director",5,171,638,1548632,"p081","angry","pentagon","","",NA,2748.30000000075,"fixed_associations","p004-p081","angry",1
773,"p004","director",5,173,645,1570187,"p081","inlove","square","","",NA,3556.39999999851,"fixed_associations","p004-p081","inlove",1
775,"p004","director",5,175,652,1586260,"p081","happy","diamond","","",NA,1871.5,"fixed_associations","p004-p081","happy",1
777,"p004","director",5,177,659,1601745,"p081","sad","circle","","",NA,3326.09999999776,"fixed_associations","p004-p081","sad",1
779,"p004","director",5,179,666,1615999,"p081","inlove","square","","",NA,2223.69999999925,"fixed_associations","p004-p081","inlove",1
781,"p004","director",5,181,673,1630166,"p081","angry","pentagon","","",NA,1338.5,"fixed_associations","p004-p081","angry",1
783,"p004","director",5,183,680,1643466,"p081","happy","diamond","","",NA,1399.5,"fixed_associations","p004-p081","happy",1
785,"p004","director",5,185,687,1657530,"p081","inlove","square","","",NA,1357.5,"fixed_associations","p004-p081","inlove",1
787,"p004","director",5,187,694,1671044,"p081","happy","diamond","","",NA,1358.30000000075,"fixed_associations","p004-p081","happy",1
789,"p004","director",5,189,701,1685655,"p081","angry","pentagon","","",NA,1224.60000000149,"fixed_associations","p004-p081","angry",1
791,"p004","director",5,191,708,1701070,"p081","sad","circle","","",NA,1581.90000000224,"fixed_associations","p004-p081","sad",1
793,"p004","director",5,193,715,1715482,"p081","angry","pentagon","","",NA,1245,"fixed_associations","p004-p081","angry",1
795,"p004","director",5,195,722,1729537,"p081","happy","diamond","","",NA,1481.5,"fixed_associations","p004-p081","happy",1
797,"p004","director",5,197,729,1744251,"p081","inlove","square","","",NA,2678.60000000149,"fixed_associations","p004-p081","inlove",1
799,"p004","director",5,199,736,1757877,"p081","sad","circle","","",NA,1435.69999999925,"fixed_associations","p004-p081","sad",1
810,"p005","director",1,10,70,377370,"p099","cross_red","cross","","",NA,1291.69999998808,"fixed_associations","p005-p099","red",NA
812,"p005","director",1,12,77,390927,"p099","circle_grey","circle","","",NA,1207.89999997616,"fixed_associations","p005-p099","grey",NA
814,"p005","director",1,14,84,402855,"p099","hexagon_pink","hexagon","","",NA,1741,"fixed_associations","p005-p099","pink",NA
816,"p005","director",1,16,91,416829,"p099","pentagon_yellow","pentagon","","",NA,2827.60000002384,"fixed_associations","p005-p099","yellow",NA
818,"p005","director",1,18,98,430676,"p099","cross_red","cross","","",NA,2644,"fixed_associations","p005-p099","red",NA
820,"p005","director",1,20,105,442929,"p099","hexagon_pink","hexagon","","",NA,1486.30000001192,"fixed_associations","p005-p099","pink",NA
822,"p005","director",1,22,112,455525,"p099","pentagon_yellow","pentagon","","",NA,1208.90000003576,"fixed_associations","p005-p099","yellow",NA
824,"p005","director",1,24,119,469649,"p099","circle_grey","circle","","",NA,1056.20000004768,"fixed_associations","p005-p099","grey",NA
826,"p005","director",1,26,126,480983,"p099","cross_red","cross","","",NA,1159.70000004768,"fixed_associations","p005-p099","red",NA
828,"p005","director",1,28,133,492631,"p099","pentagon_yellow","pentagon","","",NA,1202.40000003576,"fixed_associations","p005-p099","yellow",NA
830,"p005","director",1,30,140,504894,"p099","circle_grey","circle","","",NA,1570.30000001192,"fixed_associations","p005-p099","grey",NA
832,"p005","director",1,32,147,518219,"p099","hexagon_pink","hexagon","","",NA,2259.39999997616,"fixed_associations","p005-p099","pink",NA
834,"p005","director",1,34,154,530081,"p099","circle_grey","circle","","",NA,1227.69999998808,"fixed_associations","p005-p099","grey",NA
836,"p005","director",1,36,161,543050,"p099","cross_red","cross","","",NA,1360.69999998808,"fixed_associations","p005-p099","red",NA
838,"p005","director",1,38,168,554875,"p099","pentagon_yellow","pentagon","","",NA,1424,"fixed_associations","p005-p099","yellow",NA
840,"p005","director",1,40,175,566469,"p099","hexagon_pink","hexagon","","",NA,1331.89999997616,"fixed_associations","p005-p099","pink",NA
842,"p005","director",1,42,182,578144,"p099","pentagon_yellow","pentagon","","",NA,1381.89999997616,"fixed_associations","p005-p099","yellow",NA
844,"p005","director",1,44,189,589846,"p099","hexagon_pink","hexagon","","",NA,1517.10000002384,"fixed_associations","p005-p099","pink",NA
846,"p005","director",1,46,196,602402,"p099","cross_red","cross","","",NA,1485.40000003576,"fixed_associations","p005-p099","red",NA
848,"p005","director",1,48,203,614056,"p099","circle_grey","circle","","",NA,1101.80000001192,"fixed_associations","p005-p099","grey",NA
850,"p005","director",1,50,210,625927,"p099","cross_red","cross","","",NA,1373,"fixed_associations","p005-p099","red",NA
852,"p005","director",1,52,217,639133,"p099","circle_grey","circle","","",NA,2600.60000002384,"fixed_associations","p005-p099","grey",NA
854,"p005","director",1,54,224,651009,"p099","pentagon_yellow","pentagon","","",NA,1511.10000002384,"fixed_associations","p005-p099","yellow",NA
856,"p005","director",1,56,231,662680,"p099","hexagon_pink","hexagon","","",NA,1292.5,"fixed_associations","p005-p099","pink",NA
858,"p005","director",1,58,238,677537,"p099","hexagon_pink","hexagon","","",NA,1366.80000001192,"fixed_associations","p005-p099","pink",NA
860,"p005","director",1,60,245,689745,"p099","cross_red","cross","","",NA,1441,"fixed_associations","p005-p099","red",NA
862,"p005","director",1,62,252,701275,"p099","circle_grey","circle","","",NA,1011.69999998808,"fixed_associations","p005-p099","grey",NA
864,"p005","director",1,64,259,712727,"p099","pentagon_yellow","pentagon","","",NA,1237,"fixed_associations","p005-p099","yellow",NA
866,"p005","director",1,66,266,724297,"p099","circle_grey","circle","","",NA,1306,"fixed_associations","p005-p099","grey",NA
868,"p005","director",1,68,273,740902,"p099","cross_red","cross","","",NA,2935.30000001192,"fixed_associations","p005-p099","red",NA
870,"p005","director",1,70,280,757910,"p099","hexagon_pink","hexagon","","",NA,3979.19999998808,"fixed_associations","p005-p099","pink",NA
872,"p005","director",1,72,287,770264,"p099","pentagon_yellow","pentagon","","",NA,1438,"fixed_associations","p005-p099","yellow",NA
874,"p005","director",2,74,296,817092,"p099","splat_yellow","pentagon","","",NA,4447.89999997616,"fixed_associations","p005-p099","yellow",1
876,"p005","director",2,76,303,836362,"p099","splat_pink","pentagon","","",NA,4751.60000002384,"fixed_associations","p005-p099","pink",0
878,"p005","director",2,78,310,855275,"p099","splat_grey","circle","","",NA,2745.5,"fixed_associations","p005-p099","grey",1
880,"p005","director",2,80,317,870015,"p099","splat_red","cross","","",NA,1534.89999997616,"fixed_associations","p005-p099","red",1
882,"p005","director",2,82,324,887346,"p099","splat_red","cross","","",NA,2277.19999998808,"fixed_associations","p005-p099","red",1
884,"p005","director",2,84,331,904728,"p099","splat_yellow","pentagon","","",NA,2529.19999998808,"fixed_associations","p005-p099","yellow",1
886,"p005","director",2,86,338,922252,"p099","splat_grey","circle","","",NA,1721.39999997616,"fixed_associations","p005-p099","grey",1
888,"p005","director",2,88,345,935895,"p099","splat_pink","circle","","",NA,1443.5,"fixed_associations","p005-p099","pink",0
890,"p005","director",2,90,352,956072,"p099","splat_red","cross","","",NA,2086,"fixed_associations","p005-p099","red",1
892,"p005","director",2,92,359,975804,"p099","splat_yellow","circle","","",NA,3852.09999996424,"fixed_associations","p005-p099","yellow",0
894,"p005","director",2,94,366,993314,"p099","splat_pink","circle","","",NA,1513.40000003576,"fixed_associations","p005-p099","pink",0
896,"p005","director",2,96,373,1009184,"p099","splat_grey","hexagon","","",NA,4204.80000001192,"fixed_associations","p005-p099","grey",0
898,"p005","director",2,98,380,1024414,"p099","splat_red","cross","","",NA,1128.39999997616,"fixed_associations","p005-p099","red",1
900,"p005","director",2,100,387,1048160,"p099","splat_yellow","pentagon","","",NA,7520,"fixed_associations","p005-p099","yellow",1
902,"p005","director",2,102,394,1061952,"p099","splat_pink","circle","","",NA,1611.80000001192,"fixed_associations","p005-p099","pink",0
904,"p005","director",2,104,401,1080016,"p099","splat_grey","hexagon","","",NA,4854.39999997616,"fixed_associations","p005-p099","grey",0
906,"p005","director",3,106,408,1099765,"p099","circle_yellow","pentagon","","",NA,2467.80000001192,"fixed_associations","p005-p099","yellow",1
908,"p005","director",3,108,415,1116663,"p099","pentagon_pink","circle","","",NA,4072.10000002384,"fixed_associations","p005-p099","pink",1
910,"p005","director",3,110,422,1135484,"p099","cross_grey","hexagon","","",NA,4920.19999998808,"fixed_associations","p005-p099","grey",1
912,"p005","director",3,112,429,1156977,"p099","hexagon_red","cross","","",NA,5771,"fixed_associations","p005-p099","red",1
914,"p005","director",3,114,436,1173039,"p099","hexagon_grey","hexagon","","",NA,4540.80000001192,"fixed_associations","p005-p099","grey",1
916,"p005","director",3,116,443,1191709,"p099","hexagon_yellow","pentagon","","",NA,4176.80000001192,"fixed_associations","p005-p099","yellow",1
918,"p005","director",3,118,450,1213233,"p099","pentagon_pink","circle","","",NA,3178.69999998808,"fixed_associations","p005-p099","pink",1
920,"p005","director",3,120,457,1231069,"p099","hexagon_red","cross","","",NA,3350.59999996424,"fixed_associations","p005-p099","red",1
922,"p005","director",3,122,464,1250945,"p099","cross_yellow","pentagon","","",NA,3072.5,"fixed_associations","p005-p099","yellow",1
924,"p005","director",3,124,471,1264493,"p099","circle_red","cross","","",NA,1256.30000001192,"fixed_associations","p005-p099","red",1
926,"p005","director",3,126,478,1281047,"p099","cross_grey","circle","","",NA,2208.19999998808,"fixed_associations","p005-p099","grey",0
928,"p005","director",3,128,485,1298141,"p099","cross_pink","circle","","",NA,1683.39999997616,"fixed_associations","p005-p099","pink",1
930,"p005","director",3,130,492,1312093,"p099","pentagon_red","cross","","",NA,2105.90000003576,"fixed_associations","p005-p099","red",1
932,"p005","director",3,132,499,1333347,"p099","circle_pink","circle","","",NA,5472.39999997616,"fixed_associations","p005-p099","pink",1
934,"p005","director",3,134,506,1349713,"p099","hexagon_yellow","pentagon","","",NA,2177.80000001192,"fixed_associations","p005-p099","yellow",1
936,"p005","director",3,136,513,1365087,"p099","cross_grey","hexagon","","",NA,2890.19999998808,"fixed_associations","p005-p099","grey",1
938,"p005","director",4,138,522,1395591,"p099","banana","circle","","",NA,5990.5,"fixed_associations","p005-p099","banana",0
940,"p005","director",4,140,529,1416927,"p099","city","pentagon","","",NA,4824.69999998808,"fixed_associations","p005-p099","city",0
942,"p005","director",4,142,536,1436591,"p099","pig","cross","","",NA,4531.5,"fixed_associations","p005-p099","pig",0
944,"p005","director",4,144,543,1458462,"p099","volcano","cross","","",NA,8947.19999998808,"fixed_associations","p005-p099","volcano",1
946,"p005","director",4,146,550,1475329,"p099","banana","hexagon","","",NA,4132.40000003576,"fixed_associations","p005-p099","banana",0
948,"p005","director",4,148,557,1499866,"p099","city","cross","","",NA,8248,"fixed_associations","p005-p099","city",0
950,"p005","director",4,150,564,1520103,"p099","volcano","cross","","",NA,1476.89999997616,"fixed_associations","p005-p099","volcano",1
952,"p005","director",4,152,571,1539822,"p099","pig","pentagon","","",NA,5049.90000003576,"fixed_associations","p005-p099","pig",0
954,"p005","director",4,154,578,1558215,"p099","pig","cross","","",NA,2824.59999996424,"fixed_associations","p005-p099","pig",0
956,"p005","director",4,156,585,1575506,"p099","banana","pentagon","","",NA,2608.09999996424,"fixed_associations","p005-p099","banana",1
958,"p005","director",4,158,592,1596062,"p099","city","cross","","",NA,4705.39999997616,"fixed_associations","p005-p099","city",0
960,"p005","director",4,160,599,1613644,"p099","volcano","cross","","",NA,4970.5,"fixed_associations","p005-p099","volcano",1
962,"p005","director",4,162,606,1633582,"p099","pig","circle","","",NA,7466.70000004768,"fixed_associations","p005-p099","pig",1
964,"p005","director",4,164,613,1653912,"p099","banana","pentagon","","",NA,1692.89999997616,"fixed_associations","p005-p099","banana",1
966,"p005","director",4,166,620,1672080,"p099","volcano","cross","","",NA,3077,"fixed_associations","p005-p099","volcano",1
968,"p005","director",4,168,627,1688564,"p099","city","cross","","",NA,2177,"fixed_associations","p005-p099","city",0
970,"p005","director",5,170,634,1713314,"p099","happy","cross","","",NA,4197.79999995232,"fixed_associations","p005-p099","happy",0
972,"p005","director",5,172,641,1728985,"p099","inlove","circle","","",NA,2070.30000001192,"fixed_associations","p005-p099","inlove",1
974,"p005","director",5,174,648,1746799,"p099","sad","pentagon","","",NA,2438.80000001192,"fixed_associations","p005-p099","sad",0
976,"p005","director",5,176,655,1789279,"p099","angry","cross","","",NA,2692.89999997616,"fixed_associations","p005-p099","angry",1
978,"p005","director",5,178,662,1803134,"p099","inlove","circle","","",NA,1928.5,"fixed_associations","p005-p099","inlove",1
980,"p005","director",5,180,669,1820364,"p099","sad","pentagon","","",NA,1584.19999998808,"fixed_associations","p005-p099","sad",0
982,"p005","director",5,182,676,1838481,"p099","happy","hexagon","","",NA,5144.79999995232,"fixed_associations","p005-p099","happy",0
984,"p005","director",5,184,683,1857303,"p099","angry","cross","","",NA,3131.69999998808,"fixed_associations","p005-p099","angry",1
986,"p005","director",5,186,690,1874623,"p099","angry","cross","","",NA,1601.30000001192,"fixed_associations","p005-p099","angry",1
988,"p005","director",5,188,697,1890290,"p099","happy","circle","","",NA,3872.19999998808,"fixed_associations","p005-p099","happy",0
990,"p005","director",5,190,704,1906055,"p099","sad","cross","","",NA,1668.30000001192,"fixed_associations","p005-p099","sad",0
992,"p005","director",5,192,711,1922169,"p099","inlove","circle","","",NA,3067.40000003576,"fixed_associations","p005-p099","inlove",1
994,"p005","director",5,194,718,1939745,"p099","happy","hexagon","","",NA,4377.10000002384,"fixed_associations","p005-p099","happy",0
996,"p005","director",5,196,725,1957729,"p099","angry","pentagon","","",NA,4171.89999997616,"fixed_associations","p005-p099","angry",0
998,"p005","director",5,198,732,1973655,"p099","inlove","circle","","",NA,3636.40000003576,"fixed_associations","p005-p099","inlove",1
1000,"p005","director",5,200,739,1993776,"p099","sad","cross","","",NA,5492.09999996424,"fixed_associations","p005-p099","sad",0
1009,"p006","director",1,9,67,313682,"p127","star_grey","star","","",NA,3826.89999985695,"random_associations","p006-p127","grey",NA
1011,"p006","director",1,11,74,331618,"p127","cross_grey","cross","","",NA,2438.40000009537,"random_associations","p006-p127","grey",NA
1013,"p006","director",1,13,81,349730,"p127","diamond_grey","diamond","","",NA,3370.20000004768,"random_associations","p006-p127","grey",NA
1015,"p006","director",1,15,88,370618,"p127","square_red","square","","",NA,2754.29999995232,"random_associations","p006-p127","red",NA
1017,"p006","director",1,17,95,391426,"p127","diamond_pink","diamond","","",NA,3214,"random_associations","p006-p127","pink",NA
1019,"p006","director",1,19,102,407754,"p127","square_pink","square","","",NA,2517.40000009537,"random_associations","p006-p127","pink",NA
1021,"p006","director",1,21,109,424146,"p127","star_pink","star","","",NA,2165.5,"random_associations","p006-p127","pink",NA
1023,"p006","director",1,23,116,442130,"p127","cross_grey","cross","","",NA,2318.89999985695,"random_associations","p006-p127","grey",NA
1025,"p006","director",1,25,123,461482,"p127","cross_yellow","cross","","",NA,2019.90000009537,"random_associations","p006-p127","yellow",NA
1027,"p006","director",1,27,130,477170,"p127","star_pink","star","","",NA,2027,"random_associations","p006-p127","pink",NA
1029,"p006","director",1,29,137,496050,"p127","diamond_red","diamond","","",NA,2291.79999995232,"random_associations","p006-p127","red",NA
1031,"p006","director",1,31,144,512378,"p127","square_pink","square","","",NA,2322.29999995232,"random_associations","p006-p127","pink",NA
1033,"p006","director",1,33,151,528274,"p127","star_yellow","star","","",NA,2218.59999990463,"random_associations","p006-p127","yellow",NA
1035,"p006","director",1,35,158,544082,"p127","diamond_grey","diamond","","",NA,2654.5,"random_associations","p006-p127","grey",NA
1037,"p006","director",1,37,165,559818,"p127","cross_red","cross","","",NA,2091.79999995232,"random_associations","p006-p127","red",NA
1039,"p006","director",1,39,172,576458,"p127","square_pink","square","","",NA,1910,"random_associations","p006-p127","pink",NA
1041,"p006","director",1,41,179,591346,"p127","diamond_yellow","diamond","","",NA,2202.59999990463,"random_associations","p006-p127","yellow",NA
1043,"p006","director",1,43,186,614194,"p127","star_red","star","","",NA,1967.09999990463,"random_associations","p006-p127","red",NA
1045,"p006","director",1,45,193,630490,"p127","square_yellow","square","","",NA,2155.70000004768,"random_associations","p006-p127","yellow",NA
1047,"p006","director",1,47,200,647082,"p127","cross_red","cross","","",NA,2181.70000004768,"random_associations","p006-p127","red",NA
1049,"p006","director",1,49,207,663105,"p127","diamond_red","diamond","","",NA,2410.09999990463,"random_associations","p006-p127","red",NA
1051,"p006","director",1,51,214,678713,"p127","cross_red","cross","","",NA,1923.29999995232,"random_associations","p006-p127","red",NA
1053,"p006","director",1,53,221,693489,"p127","star_pink","star","","",NA,2422,"random_associations","p006-p127","pink",NA
1055,"p006","director",1,55,228,709945,"p127","square_red","square","","",NA,1924.89999985695,"random_associations","p006-p127","red",NA
1057,"p006","director",1,57,235,725938,"p127","diamond_yellow","diamond","","",NA,2816.5,"random_associations","p006-p127","yellow",NA
1059,"p006","director",1,59,242,740754,"p127","star_red","star","","",NA,2005.5,"random_associations","p006-p127","red",NA
1061,"p006","director",1,61,249,760930,"p127","square_red","square","","",NA,2046.70000004768,"random_associations","p006-p127","red",NA
1063,"p006","director",1,63,256,775610,"p127","cross_pink","cross","","",NA,1867.90000009537,"random_associations","p006-p127","pink",NA
1065,"p006","director",1,65,263,795650,"p127","square_red","square","","",NA,2051.29999995232,"random_associations","p006-p127","red",NA
1067,"p006","director",1,67,270,810466,"p127","cross_yellow","cross","","",NA,2145.19999980927,"random_associations","p006-p127","yellow",NA
1069,"p006","director",1,69,277,824538,"p127","diamond_yellow","diamond","","",NA,1995.79999995232,"random_associations","p006-p127","yellow",NA
1071,"p006","director",1,71,284,844930,"p127","star_red","star","","",NA,2318.5,"random_associations","p006-p127","red",NA
1073,"p006","director",2,73,293,884314,"p127","splat_red","star","","",NA,17241,"random_associations","p006-p127","red",0
1075,"p006","director",2,75,300,933434,"p127","splat_pink","star","","",NA,13397.2999999523,"random_associations","p006-p127","pink",0
1077,"p006","director",2,77,307,967050,"p127","splat_grey","diamond","","",NA,8431.70000004768,"random_associations","p006-p127","grey",1
1079,"p006","director",2,79,314,997898,"p127","splat_yellow","diamond","","",NA,11941.3999998569,"random_associations","p006-p127","yellow",1
1081,"p006","director",2,81,321,1021546,"p127","splat_pink","diamond","","",NA,4996.40000009537,"random_associations","p006-p127","pink",0
1083,"p006","director",2,83,328,1054994,"p127","splat_red","diamond","","",NA,16202.0999999046,"random_associations","p006-p127","red",0
1085,"p006","director",2,85,335,1072834,"p127","splat_grey","cross","","",NA,4593.80000019073,"random_associations","p006-p127","grey",0
1087,"p006","director",2,87,342,1090090,"p127","splat_yellow","cross","","",NA,4627.10000014305,"random_associations","p006-p127","yellow",0
1089,"p006","director",2,89,349,1113298,"p127","splat_yellow","star","","",NA,2796.09999990463,"random_associations","p006-p127","yellow",0
1091,"p006","director",2,91,356,1131745,"p127","splat_red","square","","",NA,3035.70000004768,"random_associations","p006-p127","red",1
1093,"p006","director",2,93,363,1153842,"p127","splat_grey","cross","","",NA,5519.29999995232,"random_associations","p006-p127","grey",0
1095,"p006","director",2,95,370,1169946,"p127","splat_pink","square","","",NA,1889.40000009537,"random_associations","p006-p127","pink",1
1097,"p006","director",2,97,377,1186290,"p127","splat_grey","star","","",NA,3248.20000004768,"random_associations","p006-p127","grey",0
1099,"p006","director",2,99,384,1202353,"p127","splat_red","diamond","","",NA,2804.20000004768,"random_associations","p006-p127","red",0
1101,"p006","director",2,101,391,1218257,"p127","splat_pink","square","","",NA,2488.09999990463,"random_associations","p006-p127","pink",1
1103,"p006","director",2,103,398,1235137,"p127","splat_yellow","cross","","",NA,2779.29999995232,"random_associations","p006-p127","yellow",0
1105,"p006","director",3,105,405,1254225,"p127","diamond_grey","diamond","","",NA,5372.5,"random_associations","p006-p127","grey",0
1107,"p006","director",3,107,412,1275802,"p127","diamond_pink","diamond","","",NA,4154.5,"random_associations","p006-p127","pink",0
1109,"p006","director",3,109,419,1305249,"p127","cross_yellow","square","","",NA,4963.59999990463,"random_associations","p006-p127","yellow",0
1111,"p006","director",3,111,426,1328593,"p127","star_red","cross","","",NA,4249.29999995232,"random_associations","p006-p127","red",0
1113,"p006","director",3,113,433,1344905,"p127","diamond_grey","square","","",NA,2767.59999990463,"random_associations","p006-p127","grey",0
1115,"p006","director",3,115,440,1363961,"p127","square_red","star","","",NA,3327.70000004768,"random_associations","p006-p127","red",0
1117,"p006","director",3,117,447,1380458,"p127","star_pink","cross","","",NA,4078.29999995232,"random_associations","p006-p127","pink",0
1119,"p006","director",3,119,454,1411546,"p127","diamond_yellow","cross","","",NA,8137.70000004768,"random_associations","p006-p127","yellow",1
1121,"p006","director",3,121,461,1429025,"p127","diamond_grey","cross","","",NA,2648,"random_associations","p006-p127","grey",1
1123,"p006","director",3,123,468,1446745,"p127","square_pink","diamond","","",NA,5477.70000004768,"random_associations","p006-p127","pink",0
1125,"p006","director",3,125,475,1464793,"p127","diamond_yellow","star","","",NA,3408.5,"random_associations","p006-p127","yellow",0
1127,"p006","director",3,127,482,1480601,"p127","square_red","square","","",NA,1478,"random_associations","p006-p127","red",1
1129,"p006","director",3,129,489,1497041,"p127","cross_pink","diamond","","",NA,2066.60000014305,"random_associations","p006-p127","pink",0
1131,"p006","director",3,131,496,1519105,"p127","square_grey","diamond","","",NA,2941.29999995232,"random_associations","p006-p127","grey",0
1133,"p006","director",3,133,503,1535633,"p127","diamond_yellow","square","","",NA,3973.60000014305,"random_associations","p006-p127","yellow",0
1135,"p006","director",3,135,510,1554489,"p127","diamond_red","cross","","",NA,3674.90000009537,"random_associations","p006-p127","red",0
1137,"p006","director",4,137,519,1621377,"p127","pig","square","","",NA,10284.2000000477,"random_associations","p006-p127","pig",0
1139,"p006","director",4,139,526,1654089,"p127","banana","star","","",NA,7711.60000014305,"random_associations","p006-p127","banana",1
1141,"p006","director",4,141,533,1685033,"p127","volcano","diamond","","",NA,6760.5,"random_associations","p006-p127","volcano",0
1143,"p006","director",4,143,540,1709305,"p127","city","cross","","",NA,4268.89999985695,"random_associations","p006-p127","city",0
1145,"p006","director",4,145,547,1730161,"p127","pig","cross","","",NA,3487.29999995232,"random_associations","p006-p127","pig",0
1147,"p006","director",4,147,554,1750745,"p127","city","cross","","",NA,2554.79999995232,"random_associations","p006-p127","city",0
1149,"p006","director",4,149,561,1774505,"p127","volcano","diamond","","",NA,4156.19999980927,"random_associations","p006-p127","volcano",0
1151,"p006","director",4,151,568,1793833,"p127","banana","diamond","","",NA,4160.29999995232,"random_associations","p006-p127","banana",0
1153,"p006","director",4,153,575,1816641,"p127","pig","square","","",NA,5380.40000009537,"random_associations","p006-p127","pig",0
1155,"p006","director",4,155,582,1832713,"p127","city","cross","","",NA,2011.70000004768,"random_associations","p006-p127","city",0
1157,"p006","director",4,157,589,1854057,"p127","volcano","diamond","","",NA,5864.39999985695,"random_associations","p006-p127","volcano",0
1159,"p006","director",4,159,596,1880681,"p127","banana","diamond","","",NA,5794.20000004768,"random_associations","p006-p127","banana",0
1161,"p006","director",4,161,603,1903289,"p127","banana","diamond","","",NA,4983,"random_associations","p006-p127","banana",0
1163,"p006","director",4,163,610,1918241,"p127","city","cross","","",NA,2371.90000009537,"random_associations","p006-p127","city",0
1165,"p006","director",4,165,617,1933417,"p127","pig","square","","",NA,2121.80000019073,"random_associations","p006-p127","pig",0
1167,"p006","director",4,167,624,1952145,"p127","volcano","star","","",NA,3320.80000019073,"random_associations","p006-p127","volcano",0
1169,"p006","director",5,169,631,1980737,"p127","sad","diamond","","",NA,6922.5,"random_associations","p006-p127","sad",1
1171,"p006","director",5,171,638,2006425,"p127","happy","square","","",NA,3048,"random_associations","p006-p127","happy",0
1173,"p006","director",5,173,645,2023665,"p127","angry","star","","",NA,2346.5,"random_associations","p006-p127","angry",0
1175,"p006","director",5,175,652,2047384,"p127","inlove","square","","",NA,6308.40000009537,"random_associations","p006-p127","inlove",0
1177,"p006","director",5,177,659,2066768,"p127","happy","square","","",NA,3839.59999990463,"random_associations","p006-p127","happy",0
1179,"p006","director",5,179,666,2084080,"p127","angry","diamond","","",NA,4303.5,"random_associations","p006-p127","angry",0
1181,"p006","director",5,181,673,2108473,"p127","inlove","cross","","",NA,3125.79999995232,"random_associations","p006-p127","inlove",0
1183,"p006","director",5,183,680,2126881,"p127","sad","diamond","","",NA,2635.90000009537,"random_associations","p006-p127","sad",1
1185,"p006","director",5,185,687,2143392,"p127","happy","square","","",NA,4060.5,"random_associations","p006-p127","happy",0
1187,"p006","director",5,187,694,2170441,"p127","sad","square","","",NA,3168,"random_associations","p006-p127","sad",0
1189,"p006","director",5,189,701,2188737,"p127","angry","star","","",NA,2741.90000009537,"random_associations","p006-p127","angry",0
1191,"p006","director",5,191,708,2211497,"p127","inlove","cross","","",NA,2555,"random_associations","p006-p127","inlove",0
1193,"p006","director",5,193,715,2234081,"p127","sad","cross","","",NA,2308.69999980927,"random_associations","p006-p127","sad",0
1195,"p006","director",5,195,722,2246697,"p127","happy","square","","",NA,1642.5,"random_associations","p006-p127","happy",0
1197,"p006","director",5,197,729,2270457,"p127","inlove","diamond","","",NA,1531.5,"random_associations","p006-p127","inlove",0
1199,"p006","director",5,199,736,2291952,"p127","angry","cross","","",NA,2876.80000019073,"random_associations","p006-p127","angry",0
1210,"p007","director",1,10,70,279036,"p055","hexagon_yellow","hexagon","","",NA,1436.19999998808,"random_associations","p007-p055","yellow",NA
1212,"p007","director",1,12,77,292406,"p055","circle_grey","circle","","",NA,1397.5,"random_associations","p007-p055","grey",NA
1214,"p007","director",1,14,84,305711,"p055","cross_pink","cross","","",NA,1306.90000003576,"random_associations","p007-p055","pink",NA
1216,"p007","director",1,16,91,319479,"p055","square_yellow","square","","",NA,1498.10000002384,"random_associations","p007-p055","yellow",NA
1218,"p007","director",1,18,98,332919,"p055","circle_red","circle","","",NA,1363.69999998808,"random_associations","p007-p055","red",NA
1220,"p007","director",1,20,105,346363,"p055","hexagon_grey","hexagon","","",NA,1232.89999997616,"random_associations","p007-p055","grey",NA
1222,"p007","director",1,22,112,359156,"p055","square_pink","square","","",NA,980.599999964237,"random_associations","p007-p055","pink",NA
1224,"p007","director",1,24,119,373022,"p055","cross_pink","cross","","",NA,1610,"random_associations","p007-p055","pink",NA
1226,"p007","director",1,26,126,385575,"p055","cross_pink","cross","","",NA,989.900000035763,"random_associations","p007-p055","pink",NA
1228,"p007","director",1,28,133,398129,"p055","circle_red","circle","","",NA,1050.80000001192,"random_associations","p007-p055","red",NA
1230,"p007","director",1,30,140,410907,"p055","hexagon_red","cross","","",NA,1445.5,"random_associations","p007-p055","red",NA
1232,"p007","director",1,32,147,423604,"p055","square_red","square","","",NA,1315,"random_associations","p007-p055","red",NA
1234,"p007","director",1,34,154,436622,"p055","cross_yellow","cross","","",NA,1256.59999996424,"random_associations","p007-p055","yellow",NA
1236,"p007","director",1,36,161,449632,"p055","square_pink","square","","",NA,1054.09999996424,"random_associations","p007-p055","pink",NA
1238,"p007","director",1,38,168,462641,"p055","hexagon_grey","hexagon","","",NA,1161.10000002384,"random_associations","p007-p055","grey",NA
1240,"p007","director",1,40,175,475147,"p055","circle_red","hexagon","","",NA,883.799999952316,"random_associations","p007-p055","red",NA
1242,"p007","director",1,42,182,488677,"p055","hexagon_red","hexagon","","",NA,1470.69999998808,"random_associations","p007-p055","red",NA
1244,"p007","director",1,44,189,501894,"p055","square_pink","square","","",NA,1405.89999997616,"random_associations","p007-p055","pink",NA
1246,"p007","director",1,46,196,515726,"p055","circle_yellow","circle","","",NA,1401.59999996424,"random_associations","p007-p055","yellow",NA
1248,"p007","director",1,48,203,529327,"p055","cross_pink","cross","","",NA,1863.80000001192,"random_associations","p007-p055","pink",NA
1250,"p007","director",1,50,210,542097,"p055","square_red","square","","",NA,1339.90000003576,"random_associations","p007-p055","red",NA
1252,"p007","director",1,52,217,555635,"p055","circle_pink","circle","","",NA,1901.09999996424,"random_associations","p007-p055","pink",NA
1254,"p007","director",1,54,224,568813,"p055","cross_red","cross","","",NA,1064.90000003576,"random_associations","p007-p055","red",NA
1256,"p007","director",1,56,231,581902,"p055","hexagon_pink","hexagon","","",NA,1351.09999996424,"random_associations","p007-p055","pink",NA
1258,"p007","director",1,58,238,594984,"p055","circle_yellow","circle","","",NA,1759.30000001192,"random_associations","p007-p055","yellow",NA
1260,"p007","director",1,60,245,607994,"p055","square_grey","square","","",NA,1478.30000001192,"random_associations","p007-p055","grey",NA
1262,"p007","director",1,62,252,620915,"p055","cross_pink","cross","","",NA,1292.19999998808,"random_associations","p007-p055","pink",NA
1264,"p007","director",1,64,259,634382,"p055","hexagon_grey","hexagon","","",NA,1701.30000001192,"random_associations","p007-p055","grey",NA
1266,"p007","director",1,66,266,647367,"p055","hexagon_grey","hexagon","","",NA,1054.89999997616,"random_associations","p007-p055","grey",NA
1268,"p007","director",1,68,273,660746,"p055","cross_pink","cross","","",NA,1318.60000002384,"random_associations","p007-p055","pink",NA
1270,"p007","director",1,70,280,674049,"p055","square_grey","square","","",NA,969.299999952316,"random_associations","p007-p055","grey",NA
1272,"p007","director",1,72,287,686763,"p055","circle_red","circle","","",NA,1861.19999998808,"random_associations","p007-p055","red",NA
1274,"p007","director",2,74,296,721096,"p055","splat_red","circle","","",NA,3393.39999997616,"random_associations","p007-p055","red",1
1276,"p007","director",2,76,303,739819,"p055","splat_pink","cross","","",NA,1713.60000002384,"random_associations","p007-p055","pink",1
1278,"p007","director",2,78,310,752965,"p055","splat_grey","cross","","",NA,1046.40000003576,"random_associations","p007-p055","grey",0
1280,"p007","director",2,80,317,766046,"p055","splat_yellow","cross","","",NA,958.899999976158,"random_associations","p007-p055","yellow",0
1282,"p007","director",2,82,324,782232,"p055","splat_pink","cross","","",NA,916.399999976158,"random_associations","p007-p055","pink",1
1284,"p007","director",2,84,331,795929,"p055","splat_red","cross","","",NA,1045.19999998808,"random_associations","p007-p055","red",0
1286,"p007","director",2,86,338,807948,"p055","splat_grey","cross","","",NA,812.699999988079,"random_associations","p007-p055","grey",0
1288,"p007","director",2,88,345,819356,"p055","splat_yellow","circle","","",NA,1084.19999998808,"random_associations","p007-p055","yellow",0
1290,"p007","director",2,90,352,830622,"p055","splat_yellow","cross","","",NA,1003.5,"random_associations","p007-p055","yellow",0
1292,"p007","director",2,92,359,842352,"p055","splat_pink","cross","","",NA,1367.20000004768,"random_associations","p007-p055","pink",1
1294,"p007","director",2,94,366,853745,"p055","splat_red","square","","",NA,1374,"random_associations","p007-p055","red",0
1296,"p007","director",2,96,373,865699,"p055","splat_grey","circle","","",NA,1163.69999998808,"random_associations","p007-p055","grey",1
1298,"p007","director",2,98,380,877012,"p055","splat_red","circle","","",NA,1105.30000001192,"random_associations","p007-p055","red",1
1300,"p007","director",2,100,387,888230,"p055","splat_grey","cross","","",NA,942.099999964237,"random_associations","p007-p055","grey",0
1302,"p007","director",2,102,394,900439,"p055","splat_pink","square","","",NA,980.699999988079,"random_associations","p007-p055","pink",0
1304,"p007","director",2,104,401,911385,"p055","splat_yellow","circle","","",NA,1003.5,"random_associations","p007-p055","yellow",0
1306,"p007","director",3,106,408,922778,"p055","circle_pink","square","","",NA,981.300000011921,"random_associations","p007-p055","pink",0
1308,"p007","director",3,108,415,939764,"p055","hexagon_grey","hexagon","","",NA,2827.09999996424,"random_associations","p007-p055","grey",0
1310,"p007","director",3,110,422,956703,"p055","circle_red","circle","","",NA,3979.79999995232,"random_associations","p007-p055","red",1
1312,"p007","director",3,112,429,970264,"p055","circle_yellow","circle","","",NA,1682.40000003576,"random_associations","p007-p055","yellow",1
1314,"p007","director",3,114,436,985562,"p055","hexagon_grey","hexagon","","",NA,1230.69999998808,"random_associations","p007-p055","grey",0
1316,"p007","director",3,116,443,998380,"p055","circle_yellow","circle","","",NA,1432.29999995232,"random_associations","p007-p055","yellow",1
1318,"p007","director",3,118,450,1011245,"p055","square_pink","square","","",NA,996.300000011921,"random_associations","p007-p055","pink",0
1320,"p007","director",3,120,457,1024135,"p055","hexagon_red","hexagon","","",NA,1976.39999997616,"random_associations","p007-p055","red",0
1322,"p007","director",3,122,464,1036985,"p055","circle_grey","circle","","",NA,1451.90000003576,"random_associations","p007-p055","grey",1
1324,"p007","director",3,124,471,1049067,"p055","square_yellow","square","","",NA,1102.80000001192,"random_associations","p007-p055","yellow",0
1326,"p007","director",3,126,478,1062348,"p055","circle_pink","circle","","",NA,2430.90000003576,"random_associations","p007-p055","pink",0
1328,"p007","director",3,128,485,1073630,"p055","square_red","square","","",NA,810.099999964237,"random_associations","p007-p055","red",0
1330,"p007","director",3,130,492,1087815,"p055","cross_yellow","cross","","",NA,1768,"random_associations","p007-p055","yellow",0
1332,"p007","director",3,132,499,1100233,"p055","square_red","square","","",NA,796.400000035763,"random_associations","p007-p055","red",0
1334,"p007","director",3,134,506,1115387,"p055","square_pink","square","","",NA,1303.90000003576,"random_associations","p007-p055","pink",0
1336,"p007","director",3,136,513,1127093,"p055","square_grey","square","","",NA,1249.30000001192,"random_associations","p007-p055","grey",0
1338,"p007","director",4,138,522,1144415,"p055","volcano","circle","","",NA,1213.39999997616,"random_associations","p007-p055","volcano",1
1340,"p007","director",4,140,529,1157881,"p055","banana","circle","","",NA,1063.69999998808,"random_associations","p007-p055","banana",1
1342,"p007","director",4,142,536,1170178,"p055","city","circle","","",NA,922.899999976158,"random_associations","p007-p055","city",0
1344,"p007","director",4,144,543,1181388,"p055","pig","circle","","",NA,948,"random_associations","p007-p055","pig",1
1346,"p007","director",4,146,550,1192237,"p055","pig","square","","",NA,826.800000011921,"random_associations","p007-p055","pig",0
1348,"p007","director",4,148,557,1204062,"p055","volcano","cross","","",NA,1686.69999998808,"random_associations","p007-p055","volcano",0
1350,"p007","director",4,150,564,1216488,"p055","banana","cross","","",NA,1736.80000001192,"random_associations","p007-p055","banana",0
1352,"p007","director",4,152,571,1228130,"p055","city","square","","",NA,1268.60000002384,"random_associations","p007-p055","city",0
1354,"p007","director",4,154,578,1239259,"p055","city","square","","",NA,802.399999976158,"random_associations","p007-p055","city",0
1356,"p007","director",4,156,585,1250220,"p055","banana","square","","",NA,857.300000011921,"random_associations","p007-p055","banana",0
1358,"p007","director",4,158,592,1261622,"p055","volcano","circle","","",NA,1208.30000001192,"random_associations","p007-p055","volcano",1
1360,"p007","director",4,160,599,1272816,"p055","pig","cross","","",NA,1142.89999997616,"random_associations","p007-p055","pig",0
1362,"p007","director",4,162,606,1284896,"p055","volcano","circle","","",NA,971.300000011921,"random_associations","p007-p055","volcano",1
1364,"p007","director",4,164,613,1296250,"p055","pig","cross","","",NA,933.200000047684,"random_associations","p007-p055","pig",0
1366,"p007","director",4,166,620,1307860,"p055","banana","square","","",NA,815.300000011921,"random_associations","p007-p055","banana",0
1368,"p007","director",4,168,627,1319677,"p055","city","circle","","",NA,1149.10000002384,"random_associations","p007-p055","city",0
1370,"p007","director",5,170,634,1332175,"p055","inlove","cross","","",NA,1082.69999998808,"random_associations","p007-p055","inlove",0
1372,"p007","director",5,172,641,1342992,"p055","happy","square","","",NA,1118.19999998808,"random_associations","p007-p055","happy",0
1374,"p007","director",5,174,648,1353897,"p055","angry","square","","",NA,780.5,"random_associations","p007-p055","angry",0
1376,"p007","director",5,176,655,1365011,"p055","sad","circle","","",NA,1332.60000002384,"random_associations","p007-p055","sad",0
1378,"p007","director",5,178,662,1376300,"p055","angry","cross","","",NA,1119.70000004768,"random_associations","p007-p055","angry",0
1380,"p007","director",5,180,669,1387870,"p055","happy","circle","","",NA,1165.19999998808,"random_associations","p007-p055","happy",1
1382,"p007","director",5,182,676,1399615,"p055","inlove","circle","","",NA,1055.59999996424,"random_associations","p007-p055","inlove",1
1384,"p007","director",5,184,683,1410776,"p055","sad","circle","","",NA,1083.60000002384,"random_associations","p007-p055","sad",0
1386,"p007","director",5,186,690,1422586,"p055","happy","cross","","",NA,1062,"random_associations","p007-p055","happy",0
1388,"p007","director",5,188,697,1434219,"p055","angry","square","","",NA,1632,"random_associations","p007-p055","angry",0
1390,"p007","director",5,190,704,1446645,"p055","sad","circle","","",NA,1387.5,"random_associations","p007-p055","sad",0
1392,"p007","director",5,192,711,1457679,"p055","inlove","square","","",NA,1026.80000001192,"random_associations","p007-p055","inlove",0
1394,"p007","director",5,194,718,1469496,"p055","sad","cross","","",NA,1212.69999998808,"random_associations","p007-p055","sad",1
1396,"p007","director",5,196,725,1481554,"p055","inlove","circle","","",NA,1380.40000003576,"random_associations","p007-p055","inlove",1
1398,"p007","director",5,198,732,1493883,"p055","happy","cross","","",NA,1180.5,"random_associations","p007-p055","happy",0
1400,"p007","director",5,200,739,1505237,"p055","angry","cross","","",NA,1204,"random_associations","p007-p055","angry",0
1409,"p008","director",1,9,67,357124,"p049","hexagon_grey","hexagon","","",NA,2541.60000000056,"fixed_associations","p008-p049","grey",NA
1411,"p008","director",1,11,74,380733,"p049","diamond_red","diamond","","",NA,2420.5,"fixed_associations","p008-p049","red",NA
1413,"p008","director",1,13,81,397390,"p049","cross_yellow","cross","","",NA,1719.5,"fixed_associations","p008-p049","yellow",NA
1415,"p008","director",1,15,88,441570,"p049","pentagon_pink","pentagon","","",NA,2008.09999999963,"fixed_associations","p008-p049","pink",NA
1417,"p008","director",1,17,95,458141,"p049","diamond_red","diamond","","",NA,2148.79999999981,"fixed_associations","p008-p049","red",NA
1419,"p008","director",1,19,102,489633,"p049","pentagon_pink","pentagon","","",NA,2350.70000000019,"fixed_associations","p008-p049","pink",NA
1421,"p008","director",1,21,109,530690,"p049","cross_yellow","cross","","",NA,2548.40000000037,"fixed_associations","p008-p049","yellow",NA
1423,"p008","director",1,23,116,558154,"p049","hexagon_grey","hexagon","","",NA,1851.59999999963,"fixed_associations","p008-p049","grey",NA
1425,"p008","director",1,25,123,590893,"p049","cross_yellow","cross","","",NA,2691.5,"fixed_associations","p008-p049","yellow",NA
1427,"p008","director",1,27,130,607826,"p049","diamond_red","diamond","","",NA,1972.89999999851,"fixed_associations","p008-p049","red",NA
1429,"p008","director",1,29,137,632480,"p049","pentagon_pink","pentagon","","",NA,2647.40000000037,"fixed_associations","p008-p049","pink",NA
1431,"p008","director",1,31,144,653705,"p049","hexagon_grey","hexagon","","",NA,2379.40000000037,"fixed_associations","p008-p049","grey",NA
1433,"p008","director",1,33,151,694243,"p049","cross_yellow","cross","","",NA,2571.59999999963,"fixed_associations","p008-p049","yellow",NA
1435,"p008","director",1,35,158,717892,"p049","pentagon_pink","pentagon","","",NA,2319.79999999888,"fixed_associations","p008-p049","pink",NA
1437,"p008","director",1,37,165,746140,"p049","diamond_red","diamond","","",NA,1718.40000000037,"fixed_associations","p008-p049","red",NA
1439,"p008","director",1,39,172,761973,"p049","hexagon_grey","hexagon","","",NA,2251.80000000075,"fixed_associations","p008-p049","grey",NA
1441,"p008","director",1,41,179,777485,"p049","diamond_red","diamond","","",NA,2052.89999999851,"fixed_associations","p008-p049","red",NA
1443,"p008","director",1,43,186,793079,"p049","pentagon_pink","pentagon","","",NA,3037.59999999963,"fixed_associations","p008-p049","pink",NA
1445,"p008","director",1,45,193,807567,"p049","cross_yellow","cross","","",NA,1621.19999999925,"fixed_associations","p008-p049","yellow",NA
1447,"p008","director",1,47,200,822212,"p049","hexagon_grey","hexagon","","",NA,2049.09999999963,"fixed_associations","p008-p049","grey",NA
1449,"p008","director",1,49,207,839890,"p049","hexagon_grey","hexagon","","",NA,1487.79999999888,"fixed_associations","p008-p049","grey",NA
1451,"p008","director",1,51,214,861276,"p049","cross_yellow","cross","","",NA,2512.69999999925,"fixed_associations","p008-p049","yellow",NA
1453,"p008","director",1,53,221,875271,"p049","diamond_red","diamond","","",NA,2220,"fixed_associations","p008-p049","red",NA
1455,"p008","director",1,55,228,892164,"p049","pentagon_pink","pentagon","","",NA,3624.5,"fixed_associations","p008-p049","pink",NA
1457,"p008","director",1,57,235,906329,"p049","cross_yellow","cross","","",NA,2086.5,"fixed_associations","p008-p049","yellow",NA
1459,"p008","director",1,59,242,923668,"p049","hexagon_grey","hexagon","","",NA,1806.19999999925,"fixed_associations","p008-p049","grey",NA
1461,"p008","director",1,61,249,973275,"p049","pentagon_pink","pentagon","","",NA,2762.70000000112,"fixed_associations","p008-p049","pink",NA
1463,"p008","director",1,63,256,989289,"p049","diamond_red","diamond","","",NA,2916.5,"fixed_associations","p008-p049","red",NA
1465,"p008","director",1,65,263,1005325,"p049","diamond_red","diamond","","",NA,2329.40000000037,"fixed_associations","p008-p049","red",NA
1467,"p008","director",1,67,270,1020317,"p049","pentagon_pink","pentagon","","",NA,2441.79999999888,"fixed_associations","p008-p049","pink",NA
1469,"p008","director",1,69,277,1041141,"p049","hexagon_grey","hexagon","","",NA,5374.40000000037,"fixed_associations","p008-p049","grey",NA
1471,"p008","director",1,71,284,1064043,"p049","cross_yellow","cross","","",NA,3860.20000000112,"fixed_associations","p008-p049","yellow",NA
1473,"p008","director",2,73,293,1098992,"p049","splat_yellow","cross","","",NA,13340.7000000011,"fixed_associations","p008-p049","yellow",1
1475,"p008","director",2,75,300,1129542,"p049","splat_grey","hexagon","","",NA,5082.80000000075,"fixed_associations","p008-p049","grey",1
1477,"p008","director",2,77,307,1155538,"p049","splat_red","diamond","","",NA,5576.19999999925,"fixed_associations","p008-p049","red",1
1479,"p008","director",2,79,314,1185793,"p049","splat_pink","pentagon","","",NA,2591.20000000112,"fixed_associations","p008-p049","pink",1
1481,"p008","director",2,81,321,1243369,"p049","splat_yellow","cross","","",NA,4057.09999999963,"fixed_associations","p008-p049","yellow",1
1483,"p008","director",2,83,328,1267589,"p049","splat_red","diamond","","",NA,4307.5,"fixed_associations","p008-p049","red",1
1485,"p008","director",2,85,335,1303713,"p049","splat_pink","pentagon","","",NA,3200.30000000075,"fixed_associations","p008-p049","pink",1
1487,"p008","director",2,87,342,1353291,"p049","splat_grey","hexagon","","",NA,6512.69999999925,"fixed_associations","p008-p049","grey",1
1489,"p008","director",2,89,349,1382228,"p049","splat_pink","pentagon","","",NA,4056.89999999851,"fixed_associations","p008-p049","pink",1
1491,"p008","director",2,91,356,1422997,"p049","splat_yellow","cross","","",NA,3053.90000000037,"fixed_associations","p008-p049","yellow",1
1493,"p008","director",2,93,363,1456283,"p049","splat_grey","hexagon","","",NA,6840.30000000075,"fixed_associations","p008-p049","grey",1
1495,"p008","director",2,95,370,1486192,"p049","splat_red","diamond","","",NA,4392.5,"fixed_associations","p008-p049","red",1
1497,"p008","director",2,97,377,1530449,"p049","splat_grey","hexagon","","",NA,5074,"fixed_associations","p008-p049","grey",1
1499,"p008","director",2,99,384,1547119,"p049","splat_red","diamond","","",NA,2609.40000000037,"fixed_associations","p008-p049","red",1
1501,"p008","director",2,101,391,1568951,"p049","splat_yellow","cross","","",NA,2128.20000000112,"fixed_associations","p008-p049","yellow",1
1503,"p008","director",2,103,398,1588895,"p049","splat_pink","pentagon","","",NA,2330.59999999963,"fixed_associations","p008-p049","pink",1
1505,"p008","director",3,105,405,1621110,"p049","pentagon_yellow","pentagon","","",NA,4248.90000000037,"fixed_associations","p008-p049","yellow",0
1507,"p008","director",3,107,412,1671839,"p049","pentagon_grey","hexagon","","",NA,16257.9000000004,"fixed_associations","p008-p049","grey",1
1509,"p008","director",3,109,419,1716891,"p049","hexagon_red","diamond","","",NA,4076.69999999925,"fixed_associations","p008-p049","red",1
1511,"p008","director",3,111,426,1738876,"p049","cross_pink","pentagon","","",NA,2510.09999999963,"fixed_associations","p008-p049","pink",1
1513,"p008","director",3,113,433,1759582,"p049","diamond_yellow","cross","","",NA,2786.09999999963,"fixed_associations","p008-p049","yellow",1
1515,"p008","director",3,115,440,1780465,"p049","pentagon_grey","hexagon","","",NA,6353.59999999963,"fixed_associations","p008-p049","grey",1
1517,"p008","director",3,117,447,1801185,"p049","cross_pink","pentagon","","",NA,3428.09999999963,"fixed_associations","p008-p049","pink",1
1519,"p008","director",3,119,454,1819341,"p049","pentagon_red","diamond","","",NA,3063.59999999963,"fixed_associations","p008-p049","red",1
1521,"p008","director",3,121,461,1839316,"p049","pentagon_yellow","cross","","",NA,1890.39999999851,"fixed_associations","p008-p049","yellow",1
1523,"p008","director",3,123,468,1857373,"p049","hexagon_pink","pentagon","","",NA,3787.09999999963,"fixed_associations","p008-p049","pink",1
1525,"p008","director",3,125,475,1878154,"p049","cross_red","diamond","","",NA,2415.80000000075,"fixed_associations","p008-p049","red",1
1527,"p008","director",3,127,482,1916205,"p049","diamond_grey","hexagon","","",NA,2888.09999999963,"fixed_associations","p008-p049","grey",1
1529,"p008","director",3,129,489,1942349,"p049","cross_pink","pentagon","","",NA,7161,"fixed_associations","p008-p049","pink",1
1531,"p008","director",3,131,496,1966053,"p049","hexagon_yellow","cross","","",NA,5393.80000000075,"fixed_associations","p008-p049","yellow",1
1533,"p008","director",3,133,503,1997716,"p049","pentagon_red","diamond","","",NA,4899.60000000149,"fixed_associations","p008-p049","red",1
1535,"p008","director",3,135,510,2019434,"p049","diamond_grey","hexagon","","",NA,3917.5,"fixed_associations","p008-p049","grey",1
1537,"p008","director",4,137,519,2070435,"p049","banana","cross","","",NA,10409,"fixed_associations","p008-p049","banana",1
1539,"p008","director",4,139,526,2110477,"p049","city","hexagon","","",NA,5032.09999999963,"fixed_associations","p008-p049","city",1
1541,"p008","director",4,141,533,2134601,"p049","volcano","hexagon","","",NA,6968,"fixed_associations","p008-p049","volcano",0
1543,"p008","director",4,143,540,2172859,"p049","pig","pentagon","","",NA,5288,"fixed_associations","p008-p049","pig",1
1545,"p008","director",4,145,547,2191490,"p049","volcano","diamond","","",NA,2829.60000000149,"fixed_associations","p008-p049","volcano",1
1547,"p008","director",4,147,554,2220031,"p049","city","hexagon","","",NA,5853.40000000037,"fixed_associations","p008-p049","city",1
1549,"p008","director",4,149,561,2252517,"p049","pig","pentagon","","",NA,5889.10000000149,"fixed_associations","p008-p049","pig",1
